Folder: MFRPPO/experimental_data/tensile_specimen_test_data/tensile_test_data/20250312/original_data/without_extensometer/SSS 7 03-12-25 20 02 49 下午

Note: README.md
# MFRPPO
Enhanced Mechanical Properties of 3D Printed Composites via Continuous Metal Fiber Reinforcement and Process Parameter Optimization

File: 数采：横梁, … - (实时值).csv
"文件路径: C:\Users\Lenovo\Desktop\Wayne\20250312\原始数据\无引伸计\SSS 7 03-12-25 20 02 49 下午\数采：横梁, … - (实时值).csv   "
"试验: MTS EM 拉伸试验-W 3"
"试验运行: SSS 7"
"日期: 2025/3/12 19:42:30"
""
""
"横梁 ","力 ","应变 ","应力 ","时间 "
"mm","N","mm/mm","N/mm²","sec"
"0.00246845","-125.372","2.01823e-05","-6.42933","0.1"
"0.186577","903.501","0.00155442","46.3334","5.6"
"0.369895","1790.12","0.00308207","91.8011","11.1"
"0.553258","2423.62","0.0046101","124.288","16.6"
"0.736622","2784.24","0.00613813","142.782","22.1"
"0.919986","3014.91","0.00766616","154.611","27.6"
"1.10326","3191.52","0.0091938","163.668","33.1"
"1.28657","3330.69","0.0107211","170.804","38.6"
"1.46989","3442.81","0.0122487","176.554","44.1"
"1.65325","3527.52","0.0137767","180.898","49.6"
"1.83666","3607.53","0.0153052","185.002","55.1"
"2.01994","3676.27","0.0168324","188.526","60.6"
"2.20325","3737.24","0.01836","191.653","66.1"
"2.38657","3782","0.0198877","193.949","71.6"
"2.56989","3833.62","0.0214153","196.596","77.1"
"2.7533","3862.11","0.0229438","198.057","82.6"
"2.93661","3918.54","0.0244714","200.951","88.1"
"3.11993","3960.55","0.025999","203.105","93.6"
"3.30325","4000.02","0.0275271","205.129","99.1"
"3.48657","4037.09","0.0290543","207.03","104.6"
"3.66993","4072.9","0.0305824","208.866","110.1"
"3.85325","4107.34","0.03211","210.633","115.6"
"4.03661","4139.96","0.033638","212.306","121.1"
"4.21997","4172.14","0.0351661","213.956","126.6"
"4.40324","4111.39","0.0366933","210.841","132.1"
"4.58656","4214.27","0.0382213","216.116","137.6"
"4.76988","4244.02","0.0397486","217.642","143.1"
"4.95324","4272","0.041277","219.0768","148.6"
"5.13661","4297.96","0.0428047","220.408","154.1"
"5.31992","4323.29","0.0443327","221.707","159.6"
"5.50329","4347.66","0.0458603","222.9568","165.1"
"5.68656","4370.34","0.047388","224.12","170.6"
"5.86987","4392.88","0.0489156","225.276","176.1"
"6.05324","4413.73","0.0504433","226.345","181.6"
"6.2366","4433.72","0.0519713","227.37","187.1"
"6.41997","4453.83","0.0534997","228.401","192.6"
"6.60328","4472.27","0.055027","229.347","198.1"
"6.78655","4490.24","0.0565542","230.269","203.6"
"6.96987","4507.29","0.0580823","231.143","209.1"
"7.15328","4524.2","0.0596103","232.01","214.6"
"7.33664","4540.53","0.0611387","232.848","220.1"
"7.51996","4555.48","0.062666","233.614","225.6"
"7.70323","4570.2","0.0641932","234.3692","231.1"
"7.88655","4584","0.0657209","235.077","236.6"
"8.06991","4597.77","0.0672493","235.783","242.1"
"8.25328","4611.29","0.0687769","236.476","247.6"
"8.43664","4624.12","0.0703053","237.134","253.1"
"8.61991","4636.3","0.0718326","237.759","258.6"
"8.80323","4648.07","0.0733602","238.362","264.1"
"8.98659","4659.68","0.0748879","238.958","269.6"
"9.16991","4670.8","0.0764155","239.528","275.1"
"9.35327","4682.25","0.0779439","240.115","280.6"
"9.53664","4692.33","0.0794716","240.632","286.1"
"9.71995","4702.6","0.0809992","241.159","291.6"
"9.90323","4712.31","0.0825265","241.657","297.1"
"10.0865","4721.55","0.0840541","242.131","302.6"
"10.27","4731.32","0.0855825","242.632","308.1"
"10.4533","4740.5","0.0871102","243.103","313.6"
"10.6366","4749.49","0.0886378","243.564","319.1"
"10.8199","4757.53","0.0901659","243.976","324.6"
"11.0032","4765.54","0.0916931","244.387","330.1"
"11.1866","4774.26","0.0932212","244.834","335.6"
"11.3699","4782.33","0.0947488","245.248","341.1"
"11.5533","4790.04","0.0962768","245.643","346.6"
"11.7366","4797.53","0.0978049","246.027","352.1"
"11.9199","4805.36","0.0993325","246.428","357.6"
"12.1033","4812.75","0.10086","246.808","363.1"
"12.2865","4819.45","0.102388","247.151","368.6"
"12.4699","4826.48","0.103915","247.512","374.1"
"12.6533","4833.42","0.105444","247.868","379.6"
"12.8366","4839.66","0.106972","248.188","385.1"
"13.0199","4846.09","0.108499","248.517","390.6"
"13.2033","4852.03","0.110027","248.822","396.1"
"13.3865","4858.32","0.111554","249.145","401.6"
"13.5699","4864.7","0.113082","249.472","407.1"
"13.7533","4870.83","0.11461","249.786","412.6"
"13.9366","4876.47","0.116138","250.075","418.1"
"14.12","4882.11","0.117666","250.365","423.6"
"14.3033","4887.74","0.119193","250.653","429.1"
"14.4865","4892.89","0.120721","250.917","434.6"
"14.6699","4898.85","0.122249","251.223","440.1"
"14.8533","4904.29","0.123777","251.502","445.6"
"15.0367","4909.78","0.125306","251.784","451.1"
"15.2199","4914.41","0.126832","252.021","456.6"
"15.4032","4919.01","0.12836","252.257","462.1"
"15.5866","4924.03","0.129888","252.515","467.6"
"15.7699","4928.94","0.131416","252.766","473.1"
"15.9533","4934.41","0.132944","253.047","478.6"
"16.1366","4938.29","0.134471","253.246","484.1"
"16.3199","4942.93","0.135999","253.484","489.6"
"16.5032","4947.42","0.137527","253.714","495.1"
"16.6866","4951.79","0.139054","253.938","500.6"
"16.8699","4956.76","0.140583","254.193","506.1"
"17.0532","4960.42","0.14211","254.38","511.6"
"17.2366","4964.8","0.143638","254.605","517.1"
"17.4199","4968.72","0.145166","254.806","522.6"
"17.6032","4972.69","0.146693","255.01","528.1"
"17.7866","4977","0.148221","255.231","533.6"
"17.9699","4980.94","0.149749","255.433","539.1"
"18.1533","4985.15","0.151277","255.649","544.6"
"18.3366","4989.48","0.152805","255.871","550.1"
"18.5199","4992.6","0.154332","256.031","555.6"
"18.7032","4996.92","0.15586","256.252","561.1"
"18.8866","5000.6","0.157388","256.441","566.6"
"19.0699","5004.61","0.158916","256.647","572.1"
"19.2533","5008.45","0.160444","256.844","577.6"
"19.4366","5011.58","0.161971","257.004","583.1"
"19.6199","5015.6","0.163499","257.21","588.6"
"19.8032","5018.8","0.165027","257.374","594.1"
"19.9866","5022.5","0.166555","257.564","599.6"
"20.1699","5025.83","0.168082","257.735","605.1"
"20.3533","5028.99","0.16961","257.897","610.6"
"20.5366","5032.52","0.171138","258.078","616.1"
"20.72","5035.85","0.172666","258.249","621.6"
"20.9032","5038.73","0.174193","258.396","627.1"
"21.0865","5042.24","0.175721","258.576","632.6"
"21.27","5044.94","0.177249","258.715","638.1"
"21.4533","5048.35","0.178777","258.89","643.6"
"21.6366","5051.63","0.180305","259.058","649.1"
"21.8199","5053.88","0.181832","259.174","654.6"
"22.0032","5057.41","0.18336","259.354","660.1"
"22.1866","5060.98","0.184888","259.537","665.6"
"22.37","5063.38","0.186416","259.66","671.1"
"22.5533","5066.69","0.187944","259.83","676.6"
"22.7366","5069.09","0.189472","259.953","682.1"
"22.9199","5071.96","0.190999","260.1","687.6"
"23.1032","5075.15","0.192527","260.264","693.1"
"23.2865","5078.06","0.194055","260.413","698.6"
"23.47","5081.43","0.195583","260.586","704.1"
"23.6533","5084.34","0.197111","260.735","709.6"
"23.8366","5086.75","0.198638","260.859","715.1"
"24.0199","5089.69","0.200165","261.01","720.6"
"24.2032","5092.04","0.201693","261.13","726.1"
"24.3866","5095.25","0.203222","261.295","731.6"
"24.5699","5098.38","0.20475","261.455","737.1"
"24.7533","5101","0.206277","261.59","742.6"
"24.9366","5103.8","0.207804","261.733","748.1"
"25.1199","5106.14","0.209332","261.853","753.6"
"25.3033","5109.09","0.21086","262.005","759.1"
"25.4866","5111.84","0.212388","262.146","764.6"
"25.6699","5114.19","0.213916","262.266","770.1"
"25.8533","5116.9","0.215443","262.405","775.6"
"26.0366","5119.24","0.216971","262.525","781.1"
"26.2199","5121.59","0.218499","262.645","786.6"
"26.4032","5124.04","0.220027","262.771","792.1"
"26.5866","5126.2","0.221554","262.882","797.6"
"26.7699","5128.8","0.223082","263.0152","803.1"
"26.9533","5131.39","0.224611","263.148","808.6"
"27.1366","5133.26","0.226138","263.244","814.1"
"27.3199","5135.45","0.227666","263.356","819.6"
"27.5032","5137.85","0.229193","263.48","825.1"
"27.6866","5140.28","0.230721","263.604","830.6"
"27.87","5142.42","0.232249","263.714","836.1"
"28.0533","5144.17","0.233777","263.803","841.6"
"28.2366","5146.5","0.235305","263.923","847.1"
"28.4199","5148.18","0.236832","264.009","852.6"
"28.6032","5150.02","0.23836","264.104","858.1"
"28.7866","5152.13","0.239888","264.212","863.6"
"28.97","5153.62","0.241416","264.2884","869.1"
"29.1533","5156.27","0.242944","264.424","874.6"
"29.3366","5157.12","0.244471","264.468","880.1"
"29.5199","5158.98","0.245999","264.563","885.6"
"29.7032","5160.89","0.247527","264.661","891.1"
"29.8866","5162.96","0.249055","264.767","896.6"
"30.07","5165.08","0.250583","264.876","902.1"
"30.2532","5166.86","0.25211","264.967","907.6"
"30.4366","5168.42","0.253638","265.047","913.1"
"30.6199","5170.17","0.255165","265.137","918.6"
"30.8032","5172.1","0.256693","265.236","924.1"
"30.9866","5172.96","0.258222","265.28","929.6"
"31.1699","5174.5","0.259749","265.359","935.1"
"31.3532","5176.43","0.261277","265.458","940.6"
"31.5366","5178.23","0.262805","265.55","946.1"
"31.7199","5178.92","0.264332","265.586","951.6"
"31.9032","5180.92","0.26586","265.688","957.1"
"32.0866","5182.37","0.267388","265.763","962.6"
"32.27","5182.88","0.268916","265.789","968.1"
"32.4533","5183.98","0.270444","265.845","973.6"
"32.6366","5184.22","0.271971","265.857","979.1"
"32.8199","5185.41","0.273499","265.918","984.6"
"33.0032","5187.09","0.275027","266.005","990.1"
"33.1866","5188.18","0.276555","266.061","995.6"
"33.3699","5189.49","0.278083","266.1276","1001.1"
"33.5533","5190.32","0.27961","266.17","1006.6"
"33.7366","5191.48","0.281138","266.23","1012.1"
"33.9199","5192.87","0.282666","266.301","1017.6"
"34.1032","5193.94","0.284194","266.356","1023.1"
"34.2866","5194.01","0.285721","266.36","1028.6"
"34.47","5194.51","0.287249","266.385","1034.1"
"34.6533","5194.625","0.288777","266.391","1039.6"
"34.8366","5195.19","0.290305","266.42","1045.1"
"35.0199","5190.29","0.291832","266.169","1050.6"
"35.2032","5190.62","0.29336","266.186","1056.1"
"35.3866","5185.14","0.294888","265.905","1061.6"
"35.57","5153.14","0.296416","264.263","1067.1"
"35.7533","5058.1","0.297944","259.39","1072.6"
"35.9366","2689.56","0.299471","137.926","1078.1"
"36.1199","2711.31","0.300999","139.042","1083.6"
"36.3033","2715.26","0.302527","139.244","1089.1"
"36.4866","2715.14","0.304055","139.238","1094.6"
"36.67","2716.93","0.305583","139.33","1100.1"
"36.8533","2707.28","0.30711","138.835","1105.6"
"37.0365","2678.17","0.308637","137.342","1111.1"
"37.2199","2619.9","0.310165","134.354","1116.6"
"37.2958","-125.396","0.310798","-6.43055","1118.87"