Folder: MFRPPO/experimental_data/tensile_specimen_test_data/tensile_test_data/20250312/original_data/without_extensometer/SSS 2 03-12-25 17 51 23 下午

Note: README.md
# MFRPPO
Enhanced Mechanical Properties of 3D Printed Composites via Continuous Metal Fiber Reinforcement and Process Parameter Optimization

File: 数采：横梁, … - (实时值).csv
"文件路径: C:\Users\Lenovo\Desktop\Wayne\20250312\原始数据\无引伸计\SSS 2 03-12-25 17 51 23 下午\数采：横梁, … - (实时值).csv   "
"试验: MTS EM 拉伸试验-W 3"
"试验运行: SSS 2"
"日期: 2025/3/12 16:53:55"
""
""
"横梁 ","力 ","应变 ","应力 ","时间 "
"mm","N","mm/mm","N/mm²","sec"
"0.00265475","56.654","2.17348e-05","3.11286","0.1"
"0.0898887","420.472","0.000748685","23.1029","2.7"
"0.17661","744.639","0.00147175","40.91422","5.3"
"0.263239","1033.26","0.00219366","56.7725","7.9"
"0.349867","1260.78","0.00291517","69.2736","10.5"
"0.436636","1428.86","0.00363824","78.5086","13.1"
"0.523264","1557.09","0.00436015","85.5545","15.7"
"0.609893","1659.77","0.00508244","91.1963","18.3"
"0.696615","1744.73","0.00580473","95.8645","20.9"
"0.783243","1816.57","0.00652664","99.8117","23.5"
"0.869918","1877.51","0.00724932","103.16","26.1"
"0.956593","1930.12","0.00797122","106.051","28.7"
"1.04322","1975.46","0.00869351","108.542","31.3"
"1.12994","2016.36","0.0094162","110.789","33.9"
"1.21657","2051.76","0.0101377","112.734","36.5"
"1.3032","2083.88","0.01086","114.499","39.1"
"1.38997","2113.44","0.0115827","116.123","41.7"
"1.47655","2139.87","0.0123046","117.575","44.3"
"1.56327","2165.42","0.0130269","118.979","46.9"
"1.64995","2188.89","0.0137492","120.268","49.5"
"1.73658","2210.66","0.0144711","121.465","52.1"
"1.82325","2231.93","0.0151938","122.633","54.7"
"1.90993","2251.56","0.0159157","123.712","57.3"
"1.9966","2270.89","0.016638","124.774","59.9"
"2.08332","2289.22","0.0173606","125.781","62.5"
"2.16986","2306.78","0.0180822","126.746","65.1"
"2.25658","2324.51","0.0188044","127.72","67.7"
"2.3433","2341.39","0.0195271","128.648","70.3"
"2.42993","2357.23","0.020249","129.518","72.9"
"2.51661","2372.84","0.0209713","130.376","75.5"
"2.60323","2388","0.0216936","131.209","78.1"
"2.68991","2403.46","0.0224155","132.058","80.7"
"2.77663","2417.91","0.0231382","132.852","83.3"
"2.86321","2432.29","0.0238601","133.642","85.9"
"2.94993","2446.57","0.0245824","134.427","88.5"
"3.03666","2460.61","0.0253051","135.198","91.1"
"3.12324","2473.44","0.0260266","135.903","93.7"
"3.20991","2486.56","0.0267489","136.624","96.3"
"3.29659","2499.84","0.0274716","137.354","98.9"
"3.38326","2512.43","0.0281935","138.046","101.5"
"3.46994","2524.9","0.0289162","138.731","104.1"
"3.55657","2536.84","0.0296377","139.387","106.7"
"3.64324","2548.83","0.03036","140.045","109.3"
"3.72996","2560.91","0.0310826","140.709","111.9"
"3.81655","2572.18","0.0318045","141.329","114.5"
"3.90327","2583.22","0.0325268","141.935","117.1"
"3.98994","2594.42","0.0332495","142.55","119.7"
"4.07652","2604.62","0.0339707","143.111","122.3"
"4.16329","2615.37","0.0346937","143.702","124.9"
"4.24992","2625.51","0.035416","144.259","127.5"
"4.3366","2635.57","0.0361379","144.812","130.1"
"4.42327","2645.63","0.0368606","145.364","132.7"
"4.5099","2654.54","0.0375821","145.854","135.3"
"4.59658","2664.39","0.0383044","146.395","137.9"
"4.6833","2673.23","0.0390271","146.88","140.5"
"4.76988","2681.9","0.0397486","147.357","143.1"
"4.85665","2691.24","0.0404717","147.871","145.7"
"4.94328","2699.3","0.041194","148.313","148.3"
"5.0299","2707.03","0.0419155","148.738","150.9"
"5.11663","2715.49","0.0426382","149.203","153.5"
"5.20325","2723.18","0.0433601","149.626","156.1"
"5.28993","2731.32","0.0440827","150.072","158.7"
"5.3766","2738.5","0.0448047","150.467","161.3"
"5.46319","2745.71","0.0455266","150.863","163.9"
"5.54991","2753.14","0.0462492","151.272","166.5"
"5.63663","2760.05","0.0469715","151.651","169.1"
"5.72326","2766.34","0.0476934","151.997","171.7"
"5.80993","2773.53","0.0484161","152.392","174.3"
"5.89656","2779.69","0.049138","152.73","176.9"
"5.98324","2786.06","0.0498599","153.08","179.5"
"6.06996","2792.4","0.0505826","153.429","182.1"
"6.15654","2797.67","0.0513045","153.718","184.7"
"6.24331","2803.98","0.0520272","154.065","187.3"
"6.32994","2809.45","0.0527495","154.365","189.9"
"6.41657","2814.95","0.053471","154.668","192.5"
"6.50329","2820.45","0.0541937","154.97","195.1"
"6.58992","2825.55","0.0549156","155.25","197.7"
"6.67659","2830.89","0.0556379","155.543","200.3"
"6.76331","2836.42","0.0563606","155.847","202.9"
"6.8499","2839.71","0.0570821","156.028","205.5"
"6.93657","2844.96","0.0578044","156.316","208.1"
"7.02329","2849.85","0.058527","156.585","210.7"
"7.10992","2854.47","0.0592489","156.839","213.3"
"7.19664","2858.45","0.0599716","157.058","215.9"
"7.28322","2862.79","0.0606935","157.296","218.5"
"7.3699","2867.61","0.0614154","157.561","221.1"
"7.45662","2871.84","0.0621381","157.794","223.7"
"7.54325","2875.92","0.06286","158.018","226.3"
"7.62992","2880","0.0635827","158.242","228.9"
"7.7166","2884.32","0.064305","158.479","231.5"
"7.80323","2887.96","0.0650265","158.679","234.1"
"7.88995","2891.99","0.0657492","158.901","236.7"
"7.97658","2895.35","0.0664715","159.085","239.3"
"8.06321","2899.45","0.067193","159.311","241.9"
"8.14997","2903.1","0.0679165","159.511","244.5"
"8.23656","2906.44","0.068638","159.695","247.1"
"8.32323","2909.59","0.0693603","159.867","249.7"
"8.40995","2913.08","0.0700826","160.059","252.3"
"8.49658","2916.22","0.0708045","160.232","254.9"
"8.5833","2919.69","0.0715271","160.422","257.5"
"8.66993","2923.41","0.072249","160.627","260.1"
"8.75656","2925.86","0.072971","160.762","262.7"
"8.84328","2929.16","0.0736936","160.943","265.3"
"8.92996","2932.11","0.0744159","161.105","267.9"
"9.01659","2934.85","0.0751378","161.255","270.5"
"9.10331","2937.54","0.0758605","161.403","273.1"
"9.18989","2940.14","0.076582","161.546","275.7"
"9.27657","2943.24","0.0773047","161.716","278.3"
"9.36329","2945.93","0.078027","161.864","280.9"
"9.44992","2948.66","0.0787489","162.014","283.5"
"9.53664","2950.67","0.0794716","162.125","286.1"
"9.62327","2953.43","0.0801935","162.276","288.7"
"9.70989","2956.18","0.0809158","162.427","291.3"
"9.79662","2959.08","0.0816381","162.587","293.9"
"9.88324","2961.39","0.08236","162.714","296.5"
"9.96992","2964.35","0.0830823","162.876","299.1"
"10.0566","2966.89","0.083805","163.016","301.7"
"10.1432","2968.97","0.0845265","163.13","304.3"
"10.2299","2971.55","0.0852491","163.272","306.9"
"10.3166","2974.14","0.0859711","163.414","309.5"
"10.4032","2976.23","0.0866933","163.529","312.1"
"10.49","2978.71","0.087416","163.665","314.7"
"10.5766","2980.74","0.0881375","163.777","317.3"
"10.6632","2983.38","0.0888598","163.922","319.9"
"10.7499","2985.55","0.0895829","164.041","322.5"
"10.8366","2987.51","0.0903044","164.149","325.1"
"10.9233","2989.35","0.0910271","164.25","327.7"
"11.0099","2991.62","0.0917494","164.375","330.3"
"11.0966","2993.49","0.0924709","164.478","332.9"
"11.1833","2995.76","0.093194","164.602","335.5"
"11.2699","2997.17","0.0939155","164.68","338.1"
"11.3566","2999.13","0.0946378","164.787","340.7"
"11.4433","3001.34","0.0953609","164.909","343.3"
"11.5299","3002.79","0.096082","164.988","345.9"
"11.6166","3004.55","0.0968047","165.085","348.5"
"11.7033","3005.59","0.097527","165.143","351.1"
"11.7899","3007.58","0.0982489","165.252","353.7"
"11.8766","3009.66","0.0989715","165.366","356.3"
"11.9633","3011.17","0.0996934","165.449","358.9"
"12.0499","3012.7","0.100415","165.533","361.5"
"12.1366","3014.73","0.101138","165.644","364.1"
"12.2232","3016.05","0.10186","165.717","366.7"
"12.31","3018","0.102583","165.824","369.3"
"12.3966","3019.42","0.103305","165.902","371.9"
"12.4832","3021","0.104026","165.989","374.5"
"12.5699","3023.08","0.104749","166.1032","377.1"
"12.6566","3024.25","0.105471","166.168","379.7"
"12.7432","3025.97","0.106194","166.262","382.3"
"12.83","3027.3","0.106916","166.335","384.9"
"12.9166","3028.74","0.107638","166.414","387.5"
"13.0033","3030.19","0.10836","166.494","390.1"
"13.0899","3031.54","0.109082","166.568","392.7"
"13.1765","3032.72","0.109804","166.633","395.3"
"13.2633","3034.47","0.110527","166.729","397.9"
"13.35","3035.86","0.111249","166.805","400.5"
"13.4366","3036.92","0.111971","166.864","403.1"
"13.5233","3038.47","0.112694","166.949","405.7"
"13.6099","3039.63","0.113416","167.013","408.3"
"13.6966","3041.32","0.114138","167.105","410.9"
"13.7833","3042.53","0.11486","167.172","413.5"
"13.8699","3043.53","0.115582","167.227","416.1"
"13.9566","3045","0.116305","167.307","418.7"
"14.0433","3046.02","0.117027","167.364","421.3"
"14.1299","3044.63","0.117749","167.287","423.9"
"14.2166","3045.88","0.118472","167.356","426.5"
"14.3033","3046.88","0.119193","167.411","429.1"
"14.3899","3048.01","0.119915","167.473","431.7"
"14.4766","3049.16","0.120638","167.536","434.3"
"14.5632","3049.79","0.12136","167.571","436.9"
"14.65","3051.01","0.122083","167.638","439.5"
"14.7366","3051.91","0.122805","167.687","442.1"
"14.8232","3051.81","0.123527","167.682","444.7"
"14.91","3053.06","0.124249","167.751","447.3"
"14.9966","3054.05","0.124971","167.805","449.9"
"15.0832","3055.2","0.125693","167.868","452.5"
"15.17","3056.57","0.126416","167.944","455.1"
"15.2566","3057.07","0.127138","167.971","457.7"
"15.3432","3058.21","0.12786","168.034","460.3"
"15.4299","3059.19","0.128583","168.087","462.9"
"15.5166","3058.62","0.129305","168.056","465.5"
"15.6033","3059.68","0.130027","168.114","468.1"
"15.6899","3060.45","0.130749","168.156","470.7"
"15.7765","3061.46","0.131471","168.212","473.3"
"15.8633","3062.2","0.132194","168.253","475.9"
"15.9499","3062.67","0.132916","168.278","478.5"
"16.0366","3063.35","0.133638","168.316","481.1"
"16.1233","3064.44","0.134361","168.376","483.7"
"16.2099","3064.71","0.135082","168.391","486.3"
"16.2966","3063.93","0.135805","168.348","488.9"
"16.3832","3064.61","0.136527","168.385","491.5"
"16.4699","3065.53","0.137249","168.435","494.1"
"16.5566","3063.02","0.137972","168.298","496.7"
"16.6433","3063.43","0.138693","168.32","499.3"
"16.7299","3058.86","0.139416","168.069","501.9"
"16.8166","3058.68","0.140138","168.059","504.5"
"16.9032","3057.17","0.14086","167.977","507.1"
"16.9899","3052.9","0.141583","167.742","509.7"
"17.0766","3051.02","0.142305","167.639","512.3"
"17.1632","3045.04","0.143027","167.31","514.9"
"17.2499","3027.44","0.143749","166.343","517.5"
"17.3366","2996.44","0.144471","164.639","520.1"
"17.4233","2937.46","0.145194","161.399","522.7"
"17.4523","256.658","0.145436","14.1021","523.565"