Folder: MFRPPO/experimental_data/tensile_specimen_test_data/tensile_test_data/20250312/original_data/without_extensometer/SSS 4 03-12-25 17 51 23 下午

Note: README.md
# MFRPPO
Enhanced Mechanical Properties of 3D Printed Composites via Continuous Metal Fiber Reinforcement and Process Parameter Optimization

File: 数采：横梁, … - (实时值).csv
"文件路径: C:\Users\Lenovo\Desktop\Wayne\20250312\原始数据\无引伸计\SSS 4 03-12-25 17 51 23 下午\数采：横梁, … - (实时值).csv   "
"试验: MTS EM 拉伸试验-W 3"
"试验运行: SSS 4"
"日期: 2025/3/12 17:24:20"
""
""
"横梁 ","力 ","应变 ","应力 ","时间 "
"mm","N","mm/mm","N/mm²","sec"
"0.00274789","50.3703","2.2511e-05","2.7676","0.1"
"0.0999488","543.909","0.000832519","29.8851","3"
"0.196637","969.741","0.00163826","53.2825","5.9"
"0.29328","1346.93","0.00244361","74.0074","8.8"
"0.389922","1657.36","0.00324896","91.0638","11.7"
"0.48661","1885.63","0.0040547","103.606","14.6"
"0.583299","2064.87","0.00486044","113.454","17.5"
"0.679987","2219.67","0.00566617","121.96","20.4"
"0.776583","2352.51","0.00647114","129.259","23.3"
"0.873271","2466.12","0.00727687","135.501","26.2"
"0.969914","2561.51","0.00808222","140.742","29.1"
"1.0667","2642.17","0.00888874","145.174","32"
"1.16334","2709.8","0.00969409","148.89","34.9"
"1.25993","2767.58","0.0104994","152.065","37.8"
"1.35657","2818.18","0.0113044","154.845","40.7"
"1.45326","2863.2","0.0121101","157.319","43.6"
"1.55","2904.25","0.0129163","159.574","46.5"
"1.64669","2941.32","0.013722","161.611","49.4"
"1.74328","2975.07","0.014527","163.465","52.3"
"1.83992","3006.37","0.0153323","165.185","55.2"
"1.93657","3036.18","0.0161381","166.823","58.1"
"2.03326","3064.15","0.0169438","168.36","61"
"2.12999","3091.03","0.0177499","169.837","63.9"
"2.22659","3115.51","0.0185549","171.182","66.8"
"2.32327","3139.54","0.0193602","172.502","69.7"
"2.41987","3162.19","0.0201656","173.7468","72.6"
"2.51665","3184.48","0.0209717","174.971","75.5"
"2.61329","3205.6","0.0217771","176.1316","78.4"
"2.70994","3226.24","0.0225824","177.266","81.3"
"2.80658","3246.28","0.0233878","178.367","84.2"
"2.90327","3265.52","0.0241935","179.424","87.1"
"2.99996","3285.05","0.0249992","180.497","90"
"3.09664","3303.32","0.025805","181.501","92.9"
"3.19324","3321.13","0.0266103","182.479","95.8"
"3.28993","3338.91","0.0274157","183.456","98.7"
"3.38662","3356.63","0.0282218","184.4304","101.6"
"3.48331","3373.3","0.0290275","185.346","104.5"
"3.58004","3389.7","0.0298333","186.247","107.4"
"3.67659","3405.08","0.0306379","187.092","110.3"
"3.77328","3420.71","0.0314436","187.951","113.2"
"3.86992","3435.46","0.0322489","188.761","116.1"
"3.96666","3451.39","0.0330555","189.637","119"
"4.0633","3465.77","0.0338608","190.427","121.9"
"4.15994","3480.33","0.0346658","191.227","124.8"
"4.25658","3494.04","0.0354711","191.98","127.7"
"4.35327","3507.04","0.0362769","192.695","130.6"
"4.44996","3520.2","0.0370826","193.418","133.5"
"4.54665","3533.41","0.0378883","194.143","136.4"
"4.64324","3546.18","0.0386937","194.845","139.3"
"4.73993","3558.72","0.039499","195.534","142.2"
"4.83662","3571.09","0.0403048","196.214","145.1"
"4.93326","3582.94","0.0411105","196.865","148"
"5.03","3594.54","0.0419163","197.502","150.9"
"5.12655","3605.73","0.0427212","198.117","153.8"
"5.22328","3616.81","0.043527","198.726","156.7"
"5.31992","3627.81","0.0443323","199.33","159.6"
"5.41666","3638.8","0.0451384","199.934","162.5"
"5.5133","3648.83","0.0459438","200.485","165.4"
"5.6099","3658.81","0.0467491","201.033","168.3"
"5.70658","3668.58","0.0475545","201.57","171.2"
"5.80327","3678.34","0.0483602","202.107","174.1"
"5.89996","3687.74","0.0491663","202.623","177"
"5.99665","3697.4","0.0499717","203.154","179.9"
"6.09329","3705.79","0.0507771","203.615","182.8"
"6.18993","3714.02","0.0515824","204.067","185.7"
"6.28662","3722.57","0.0523885","204.537","188.6"
"6.38331","3731.05","0.0531939","205.003","191.5"
"6.48","3739.43","0.054","205.463","194.4"
"6.57655","3746.77","0.0548046","205.867","197.3"
"6.67324","3754.16","0.0556103","206.272","200.2"
"6.76993","3761.84","0.0564157","206.695","203.1"
"6.86666","3769.39","0.0572218","207.11","206"
"6.96326","3776.08","0.0580271","207.477","208.9"
"7.0599","3782.61","0.0588325","207.836","211.8"
"7.15659","3789.42","0.0596378","208.21","214.7"
"7.25328","3796.05","0.0604436","208.574","217.6"
"7.34997","3802.79","0.0612493","208.944","220.5"
"7.44665","3808.41","0.0620551","209.253","223.4"
"7.54325","3814.62","0.06286","209.594","226.3"
"7.63994","3820.68","0.0636658","209.928","229.2"
"7.73663","3826.81","0.0644715","210.264","232.1"
"7.83327","3832.74","0.0652772","210.59","235"
"7.93","3838.39","0.066083","210.9","237.9"
"8.02655","3843.41","0.0668879","211.176","240.8"
"8.12329","3849.01","0.0676937","211.484","243.7"
"8.21993","3854.15","0.0684994","211.766","246.6"
"8.31666","3859.65","0.0693055","212.068","249.5"
"8.41331","3865.07","0.0701105","212.366","252.4"
"8.5099","3870.12","0.0709159","212.644","255.3"
"8.60659","3875.03","0.0717212","212.914","258.2"
"8.70328","3880","0.0725273","213.187","261.1"
"8.79997","3884.95","0.0733331","213.459","264"
"8.89666","3889.48","0.0741384","213.708","266.9"
"8.99325","3894.33","0.0749434","213.974","269.8"
"9.08989","3898.42","0.0757487","214.199","272.7"
"9.18663","3903.1","0.0765549","214.456","275.6"
"9.28327","3907.27","0.0773606","214.685","278.5"
"9.38001","3911.39","0.0781663","214.911","281.4"
"9.47656","3914.82","0.0789713","215.1","284.3"
"9.57324","3919.22","0.079777","215.342","287.2"
"9.66993","3923.44","0.0805824","215.574","290.1"
"9.76662","3927.58","0.0813885","215.801","293"
"9.86326","3931.49","0.0821935","216.016","295.9"
"9.95991","3935.24","0.0829988","216.222","298.8"
"10.0566","3938.19","0.0838046","216.384","301.7"
"10.1533","3942.62","0.0846107","216.627","304.6"
"10.25","3945.99","0.085416","216.812","307.5"
"10.3466","3949.63","0.0862214","217.012","310.4"
"10.4433","3953.18","0.0870267","217.208","313.3"
"10.5399","3955.02","0.0878325","217.309","316.2"
"10.6367","3958.85","0.0886386","217.519","319.1"
"10.7333","3962.33","0.0894443","217.71","322"
"10.83","3965.99","0.0902497","217.912","324.9"
"10.9266","3968.24","0.0910543","218.035","327.8"
"11.0232","3971.3","0.0918604","218.203","330.7"
"11.1199","3974.22","0.0926661","218.364","333.6"
"11.2167","3977.65","0.0934719","218.552","336.5"
"11.3133","3980.59","0.0942772","218.714","339.4"
"11.4099","3983.51","0.0950822","218.874","342.3"
"11.5066","3986.54","0.0958879","219.0408","345.2"
"11.6033","3989.8","0.0966937","219.22","348.1"
"11.6999","3992.77","0.0974994","219.383","351"
"11.7966","3996.01","0.0983048","219.561","353.9"
"11.8933","3998.33","0.0991101","219.6884","356.8"
"11.9899","4001.59","0.0999158","219.8676","359.7"
"12.0866","4004.56","0.100722","220.031","362.6"
"12.1833","4006.85","0.101527","220.157","365.5"
"12.28","4009.64","0.102333","220.31","368.4"
"12.3766","4012.07","0.103138","220.443","371.3"
"12.4733","4014.85","0.103944","220.596","374.2"
"12.5699","4017.17","0.10475","220.724","377.1"
"12.6666","4020.05","0.105555","220.882","380"
"12.7633","4021.8","0.10636","220.978","382.9"
"12.8599","4023.89","0.107166","221.093","385.8"
"12.9566","4026.75","0.107971","221.25","388.7"
"13.0533","4029.25","0.108777","221.388","391.6"
"13.15","4031.85","0.109583","221.53","394.5"
"13.2467","4034.3","0.110389","221.665","397.4"
"13.3433","4035.99","0.111193","221.758","400.3"
"13.44","4037.94","0.111999","221.865","403.2"
"13.5366","4040.43","0.112805","222.0016","406.1"
"13.6333","4042.5","0.113611","222.115","409"
"13.73","4044.9","0.114416","222.248","411.9"
"13.8266","4046.67","0.115221","222.344","414.8"
"13.9233","4049.17","0.116027","222.482","417.7"
"14.0199","4051.14","0.116832","222.59","420.6"
"14.1166","4053.48","0.117638","222.718","423.5"
"14.2133","4055.27","0.118444","222.817","426.4"
"14.3099","4056.94","0.119249","222.909","429.3"
"14.4066","4059.59","0.120055","223.054","432.2"
"14.5033","4061.79","0.120861","223.175","435.1"
"14.5999","4063.79","0.121666","223.2852","438"
"14.6966","4065.51","0.122471","223.379","440.9"
"14.7932","4067.2","0.123277","223.473","443.8"
"14.89","4068.31","0.124083","223.533","446.7"
"14.9866","4070.88","0.124889","223.674","449.6"
"15.0833","4072.36","0.125694","223.756","452.5"
"15.18","4073.42","0.126499","223.814","455.4"
"15.2766","4075.04","0.127304","223.903","458.3"
"15.3733","4076.98","0.12811","224.01","461.2"
"15.4699","4078.63","0.128916","224.1004","464.1"
"15.5667","4080.28","0.129722","224.191","467"
"15.6633","4082.13","0.130527","224.293","469.9"
"15.7599","4083.61","0.131332","224.374","472.8"
"15.8566","4084.99","0.132138","224.45","475.7"
"15.9533","4086.67","0.132944","224.543","478.6"
"16.05","4087.76","0.133749","224.602","481.5"
"16.1466","4089.37","0.134555","224.6904","484.4"
"16.2433","4090.75","0.13536","224.766","487.3"
"16.3399","4092.43","0.136166","224.859","490.2"
"16.4366","4094.24","0.136972","224.958","493.1"
"16.5333","4095.43","0.137777","225.024","496"
"16.6299","4096.91","0.138583","225.105","498.9"
"16.7265","4097.03","0.139388","225.1116","501.8"
"16.8233","4098.35","0.140194","225.184","504.7"
"16.92","4099.67","0.140999","225.257","507.6"
"17.0166","4100.89","0.141805","225.324","510.5"
"17.1132","4102.41","0.14261","225.407","513.4"
"17.2099","4103.43","0.143416","225.463","516.3"
"17.3066","4104.62","0.144221","225.529","519.2"
"17.4033","4105.15","0.145028","225.558","522.1"
"17.4999","4106.62","0.145832","225.639","525"
"17.5966","4107.07","0.146638","225.663","527.9"
"17.6933","4107.92","0.147444","225.71","530.8"
"17.79","4108.94","0.148249","225.766","533.7"
"17.8867","4108.93","0.149055","225.765","536.6"
"17.9833","4109.92","0.149861","225.82","539.5"
"18.08","4110.91","0.150666","225.874","542.4"
"18.1766","4105.42","0.151471","225.572","545.3"
"18.2733","4073.38","0.152277","223.812","548.2"
"18.37","4076.39","0.153083","223.977","551.1"
"18.4666","4075.35","0.153888","223.92","554"
"18.5633","4068.9","0.154694","223.566","556.9"
"18.6599","4046.64","0.155499","222.343","559.8"
"18.7566","3975.78","0.156305","218.449","562.7"
"18.8533","3088.95","0.15711","169.723","565.6"
"18.9499","3055.68","0.157916","167.894","568.5"
"19.0466","2669.9","0.158721","146.698","571.4"
"19.1148","-60.0747","0.15929","-3.30081","573.438"