Folder: MFRPPO/experimental_data/tensile_specimen_test_data/tensile_test_data/20250312/original_data/without_extensometer/SSS 5 03-12-25 17 51 23 下午

Note: README.md
# MFRPPO
Enhanced Mechanical Properties of 3D Printed Composites via Continuous Metal Fiber Reinforcement and Process Parameter Optimization

File: 数采：横梁, … - (实时值).csv
"文件路径: C:\Users\Lenovo\Desktop\Wayne\20250312\原始数据\无引伸计\SSS 5 03-12-25 17 51 23 下午\数采：横梁, … - (实时值).csv   "
"试验: MTS EM 拉伸试验-W 3"
"试验运行: SSS 5"
"日期: 2025/3/12 17:36:24"
""
""
"横梁 ","力 ","应变 ","应力 ","时间 "
"mm","N","mm/mm","N/mm²","sec"
"0.00274789","-64.4913","2.2511e-05","-3.543478","0.1"
"0.129896","538.217","0.00108247","29.5724","3.9"
"0.256579","1078.39","0.00213816","59.2523","7.7"
"0.383261","1544.92","0.00319346","84.8854","11.5"
"0.509944","1901.02","0.00424914","104.452","15.3"
"0.636627","2144.25","0.00530522","117.816","19.1"
"0.763263","2337.95","0.00636052","128.459","22.9"
"0.889945","2494.44","0.00741582","137.057","26.7"
"1.01663","2620.3","0.00847151","143.973","30.5"
"1.14326","2724.81","0.00952681","149.715","34.3"
"1.2699","2812.86","0.0105821","154.553","38.1"
"1.39663","2887.56","0.0116382","158.657","41.9"
"1.52326","2951.95","0.0126935","162.195","45.7"
"1.64995","3007.85","0.0137492","165.266","49.5"
"1.77663","3056.94","0.0148049","167.964","53.3"
"1.90331","3100.84","0.0158606","170.376","57.1"
"2.02995","3140.97","0.0169162","172.581","60.9"
"2.15668","3174.53","0.0179719","174.425","64.7"
"2.28331","3208.7","0.0190276","176.302","68.5"
"2.41","3239.83","0.0200829","178.013","72.3"
"2.53668","3269.37","0.0211386","179.6356","76.1"
"2.66332","3296.66","0.0221939","181.135","79.9"
"2.7899","3322.82","0.0232488","182.573","83.7"
"2.91659","3347.73","0.0243045","183.941","87.5"
"3.04322","3365.36","0.0253602","184.91","91.3"
"3.16991","3390.27","0.0264155","186.278","95.1"
"3.29659","3412.95","0.0274716","187.525","98.9"
"3.42327","3423.41","0.0285273","188.1","102.7"
"3.54995","3450.32","0.0295826","189.578","106.5"
"3.67664","3471.09","0.0306386","190.719","110.3"
"3.80332","3490.39","0.0316939","191.78","114.1"
"3.92995","3508.87","0.0327496","192.795","117.9"
"4.05664","3527.42","0.0338049","193.814","121.7"
"4.18332","3544.51","0.0348606","194.753","125.5"
"4.30996","3561.67","0.0359159","195.696","129.3"
"4.43659","3578.37","0.0369712","196.614","133.1"
"4.56327","3594.41","0.0380269","197.495","136.9"
"4.68991","3609.57","0.0390826","198.328","140.7"
"4.81659","3625.28","0.0401379","199.191","144.5"
"4.94328","3639.93","0.041194","199.996","148.3"
"5.06996","3654.13","0.0422493","200.776","152.1"
"5.19664","3668.39","0.0433049","201.56","155.9"
"5.32332","3681.8","0.044361","202.297","159.7"
"5.44996","3694.53","0.0454163","202.996","163.5"
"5.57664","3707.27","0.0464716","203.696","167.3"
"5.70332","3719.72","0.0475273","204.38","171.1"
"5.82996","3731.01","0.0485826","205.001","174.9"
"5.9566","3743","0.0496379","205.66","178.7"
"6.08323","3753.86","0.0506936","206.256","182.5"
"6.20992","3764.49","0.0517489","206.84","186.3"
"6.33655","3774.78","0.0528042","207.406","190.1"
"6.46323","3785.01","0.0538603","207.967","193.9"
"6.58992","3794.78","0.054916","208.504","197.7"
"6.7166","3804.32","0.0559713","209.028","201.5"
"6.84328","3813.58","0.057027","209.537","205.3"
"6.96996","3819.24","0.058083","209.848","209.1"
"7.0966","3828.83","0.0591383","210.376","212.9"
"7.22328","3837.54","0.0601936","210.854","216.7"
"7.34997","3845.15","0.0612493","211.272","220.5"
"7.47655","3852.65","0.0623046","211.684","224.3"
"7.60324","3860","0.0633599","212.088","228.1"
"7.72992","3867.49","0.0644156","212.5","231.9"
"7.85656","3874.43","0.0654713","212.881","235.7"
"7.98324","3881.4","0.0665266","213.264","239.5"
"8.10997","3888.22","0.0675827","213.639","243.3"
"8.2366","3894.59","0.0686384","213.989","247.1"
"8.36329","3900.86","0.0696937","214.333","250.9"
"8.49002","3907.16","0.0707497","214.679","254.7"
"8.61665","3912.95","0.071805","214.997","258.5"
"8.74329","3918.19","0.0728603","215.285","262.3"
"8.86997","3923.93","0.073916","215.6","266.1"
"8.99661","3929.27","0.0749713","215.894","269.9"
"9.12324","3934.51","0.0760266","216.182","273.7"
"9.24992","3940.04","0.0770823","216.486","277.5"
"9.37656","3944.57","0.078138","216.735","281.3"
"9.50324","3949.75","0.0791933","217.019","285.1"
"9.62993","3954.47","0.080249","217.279","288.9"
"9.75661","3959.04","0.0813047","217.53","292.7"
"9.88329","3963.96","0.0823604","217.8","296.5"
"10.01","3968.61","0.0834161","218.056","300.3"
"10.1367","3973.04","0.0844717","218.299","304.1"
"10.2633","3977.28","0.0855274","218.532","307.9"
"10.39","3981.6","0.0865827","218.769","311.7"
"10.5166","3985.55","0.087638","218.986","315.5"
"10.6432","3989.44","0.0886937","219.2","319.3"
"10.7699","3993.25","0.089749","219.409","323.1"
"10.8966","3997.09","0.0908047","219.62","326.9"
"11.0232","4000.61","0.0918604","219.814","330.7"
"11.1499","4004.48","0.0929157","220.027","334.5"
"11.2767","4007.9","0.0939718","220.214","338.3"
"11.4033","4011.48","0.0950275","220.411","342.1"
"11.53","4014.98","0.0960828","220.603","345.9"
"11.6567","4018.3","0.0971388","220.786","349.7"
"11.7833","4021.37","0.0981941","220.955","353.5"
"11.91","4024.48","0.0992494","221.125","357.3"
"12.0367","4027.56","0.100305","221.295","361.1"
"12.1633","4030.61","0.10136","221.462","364.9"
"12.2899","4033.43","0.102416","221.617","368.7"
"12.4166","4036.36","0.103471","221.778","372.5"
"12.5433","4039.29","0.104527","221.939","376.3"
"12.6699","4042.16","0.105582","222.096","380.1"
"12.7966","4044.93","0.106638","222.249","383.9"
"12.9233","4047.74","0.107694","222.403","387.7"
"13.0499","4050.37","0.108749","222.548","391.5"
"13.1766","4053.07","0.109805","222.696","395.3"
"13.3033","4053.53","0.110861","222.722","399.1"
"13.4299","4057.02","0.111916","222.913","402.9"
"13.5566","4059.66","0.112971","223.058","406.7"
"13.6833","4062.15","0.114027","223.195","410.5"
"13.8099","4064.12","0.115082","223.303","414.3"
"13.9366","4066.68","0.116138","223.444","418.1"
"14.0633","4069.01","0.117193","223.572","421.9"
"14.1899","4071.13","0.118249","223.688","425.7"
"14.3166","4073.51","0.119304","223.819","429.5"
"14.4433","4076.01","0.12036","223.957","433.3"
"14.5699","4078.69","0.121416","224.104","437.1"
"14.6966","4080.46","0.122471","224.201","440.9"
"14.8233","4082.71","0.123528","224.325","444.7"
"14.9499","4085.12","0.124583","224.457","448.5"
"15.0766","4086.9","0.125638","224.555","452.3"
"15.2033","4088.84","0.126694","224.662","456.1"
"15.3299","4090.74","0.127749","224.766","459.9"
"15.4565","4092.57","0.128804","224.866","463.7"
"15.5833","4094.73","0.12986","224.985","467.5"
"15.7099","4096.76","0.130915","225.097","471.3"
"15.8366","4098.875","0.131971","225.213","475.1"
"15.9633","4100.7","0.133027","225.313","478.9"
"16.0899","4102.48","0.134082","225.411","482.7"
"16.2166","4104.37","0.135138","225.515","486.5"
"16.3433","4105.85","0.136194","225.596","490.3"
"16.47","4107.59","0.13725","225.692","494.1"
"16.5966","4109.32","0.138305","225.787","497.9"
"16.7233","4110.8","0.139361","225.8684","501.7"
"16.8499","4112.56","0.140416","225.965","505.5"
"16.9766","4114.25","0.141471","226.057","509.3"
"17.1032","4116.11","0.142526","226.16","513.1"
"17.2299","4117.89","0.143583","226.258","516.9"
"17.3566","4119.41","0.144638","226.341","520.7"
"17.4833","4120.94","0.145694","226.425","524.5"
"17.61","4122.78","0.14675","226.526","528.3"
"17.7366","4124.53","0.147805","226.623","532.1"
"17.8633","4126.17","0.148861","226.713","535.9"
"17.99","4128","0.149917","226.813","539.7"
"18.1166","4129.46","0.150972","226.893","543.5"
"18.2433","4130.83","0.152027","226.969","547.3"
"18.37","4132.15","0.153083","227.041","551.1"
"18.4966","4133.71","0.154138","227.127","554.9"
"18.6232","4135.08","0.155194","227.202","558.7"
"18.7499","4136.59","0.156249","227.285","562.5"
"18.8766","4137.99","0.157305","227.362","566.3"
"19.0033","4139.23","0.15836","227.43","570.1"
"19.13","4141.12","0.159416","227.534","573.9"
"19.2566","4142.37","0.160472","227.603","577.7"
"19.3833","4143.27","0.161527","227.652","581.5"
"19.51","4144.93","0.162583","227.743","585.3"
"19.6367","4145.72","0.163639","227.7868","589.1"
"19.7633","4146.62","0.164694","227.836","592.9"
"19.89","4148.19","0.165749","227.9228","596.7"
"20.0166","4149.29","0.166805","227.983","600.5"
"20.1433","4150.5","0.16786","228.049","604.3"
"20.2699","4151.52","0.168916","228.106","608.1"
"20.3966","4152.91","0.169971","228.182","611.9"
"20.5232","4153.93","0.171027","228.238","615.7"
"20.6499","4154.64","0.172082","228.277","619.5"
"20.7766","4156.12","0.173138","228.358","623.3"
"20.9033","4156.75","0.174194","228.393","627.1"
"21.03","4155.41","0.175249","228.319","630.9"
"21.1566","4157.34","0.176305","228.425","634.7"
"21.2833","4158.55","0.177361","228.492","638.5"
"21.4099","4159.67","0.178416","228.553","642.3"
"21.5366","4160.52","0.179471","228.6","646.1"
"21.6632","4161.17","0.180527","228.636","649.9"
"21.7899","4162.06","0.181582","228.684","653.7"
"21.9166","4161.33","0.182638","228.645","657.5"
"22.0432","4159.5","0.183693","228.544","661.3"
"22.1699","4160.87","0.184749","228.619","665.1"
"22.2966","4162.08","0.185805","228.686","668.9"
"22.4233","4159.36","0.186861","228.536","672.7"
"22.55","4160.57","0.187916","228.603","676.5"
"22.6766","4161.15","0.188972","228.635","680.3"
"22.8033","4161.98","0.190027","228.68","684.1"
"22.93","4162.31","0.191083","228.698","687.9"
"23.0566","4163.04","0.192138","228.738","691.7"
"23.1833","4162.55","0.193194","228.712","695.5"
"23.3099","4142.86","0.194249","227.63","699.3"
"23.4366","3419.99","0.195305","187.911","703.1"
"23.5633","3429.53","0.19636","188.436","706.9"
"23.6899","3430.48","0.197416","188.488","710.7"
"23.8166","3425.23","0.198471","188.199","714.5"
"23.9433","3418.52","0.199527","187.831","718.3"
"24.07","3415.54","0.200583","187.667","722.1"
"24.1966","3410.02","0.201638","187.364","725.9"
"24.3233","3406.85","0.202694","187.189","729.7"
"24.45","3398.15","0.203749","186.712","733.5"
"24.5766","3391.39","0.204805","186.34","737.3"
"24.7033","3379.9","0.20586","185.709","741.1"
"24.8299","3365.31","0.206916","184.907","744.9"
"24.9566","1940.58","0.207971","106.625","748.7"
"25.0832","1958.6","0.209027","107.615","752.5"
"25.2099","1963.26","0.210082","107.871","756.3"
"25.3366","1960.48","0.211138","107.719","760.1"
"25.4633","1941.3","0.212194","106.665","763.9"
"25.59","1897.27","0.21325","104.246","767.7"
"25.628","7.76324","0.213566","0.426551","768.831"