Folder: MFRPPO/experimental_data/tensile_specimen_test_data/tensile_test_data/20250312/original_data/without_extensometer/SSS 1 03-12-25 17 51 23 下午

Note: README.md
# MFRPPO
Enhanced Mechanical Properties of 3D Printed Composites via Continuous Metal Fiber Reinforcement and Process Parameter Optimization

File: 数采：横梁, … - (实时值).csv
"文件路径: C:\Users\Lenovo\Desktop\Wayne\20250312\原始数据\无引伸计\SSS 1 03-12-25 17 51 23 下午\数采：横梁, … - (实时值).csv   "
"试验: MTS EM 拉伸试验-W 3"
"试验运行: SSS 1"
"日期: 2025/3/12 16:40:17"
""
""
"横梁 ","力 ","应变 ","应力 ","时间 "
"mm","N","mm/mm","N/mm²","sec"
"0.00405198","70.7468","3.33784e-05","3.62804","0.154"
"0.107913","400.554","0.000899276","20.5412","3.254"
"0.211308","684.432","0.0017609","35.0991","6.354"
"0.314657","916.799","0.00262214","47.0153","9.454"
"0.417959","1068.24","0.00348261","54.7817","12.554"
"0.521215","1176.28","0.00434346","60.3222","15.654"
"0.624657","1262.59","0.00520547","64.7481","18.754"
"0.728006","1333.9","0.00606671","68.405","21.854"
"0.831261","1393.87","0.00692718","71.48064","24.954"
"0.93461","1444.48","0.00778803","74.07604","28.054"
"1.03801","1488.43","0.00864966","76.3298","31.154"
"1.14135","1526.64","0.0095109","78.2894","34.254"
"1.24461","1560.72","0.0103714","80.0369","37.354"
"1.34791","1591.11","0.0112326","81.5953","40.454"
"1.45135","1619.52","0.0120942","83.0521","43.554"
"1.55466","1645.46","0.0129555","84.3828","46.654"
"1.65796","1669.55","0.0138159","85.6181","49.754"
"1.76126","1692.75","0.0146772","86.8075","52.854"
"1.86466","1714.68","0.0155384","87.9325","55.954"
"1.968","1735.42","0.0163996","88.9958","59.054"
"2.07126","1755.29","0.0172605","90.01468","62.154"
"2.17461","1774.5","0.0181214","90.9998","65.254"
"2.278","1792.97","0.018983","91.9474","68.354"
"2.38135","1810.93","0.0198442","92.8683","71.454"
"2.48466","1828.4","0.0207051","93.76392","74.554"
"2.58791","1845.13","0.0215659","94.622","77.654"
"2.69131","1861.72","0.0224276","95.4728","80.754"
"2.79466","1877.68","0.0232888","96.2913","83.854"
"2.89796","1893.6","0.0241493","97.1077","86.954"
"3.00126","1908.43","0.0250101","97.8681","90.054"
"3.10465","1923.53","0.0258717","98.6424","93.154"
"3.20805","1938.18","0.0267334","99.394","96.254"
"3.31126","1952.05","0.0275938","100.105","99.354"
"3.41461","1965.85","0.0284547","100.813","102.454"
"3.51805","1979.53","0.0293167","101.514","105.554"
"3.62135","1992.52","0.0301775","102.18","108.654"
"3.72456","2004.68","0.031038","102.804","111.754"
"3.82791","2017.27","0.0318993","103.45","114.854"
"3.93135","2029.78","0.0327609","104.091","117.954"
"4.03465","2041.47","0.0336217","104.691","121.054"
"4.13796","2052.54","0.0344826","105.259","124.154"
"4.2413","2063.67","0.0353438","105.829","127.254"
"4.34465","2074.37","0.0362054","106.378","130.354"
"4.448","2085.05","0.0370663","106.926","133.454"
"4.5513","2094.97","0.0379272","107.435","136.554"
"4.65461","2104.7","0.038788","107.9334","139.654"
"4.758","2114.46","0.0396496","108.4336","142.754"
"4.86135","2123.51","0.0405109","108.898","145.854"
"4.96465","2132.21","0.0413717","109.344","148.954"
"5.06791","2140.65","0.0422322","109.777","152.054"
"5.17135","2149.17","0.0430942","110.214","155.154"
"5.2747","2157.22","0.0439554","110.626","158.254"
"5.37791","2165.03","0.0448159","111.027","161.354"
"5.48126","2172.17","0.0456768","111.394","164.454"
"5.5847","2179.88","0.0465388","111.789","167.554"
"5.68805","2186.49","0.0474","112.128","170.654"
"5.7913","2193","0.0482605","112.462","173.754"
"5.89461","2199.41","0.0491217","112.79","176.854"
"5.998","2205.94","0.049983","113.125","179.954"
"6.10135","2211.99","0.0508442","113.435","183.054"
"6.20461","2217.85","0.0517047","113.736","186.154"
"6.30791","2223.43","0.0525655","114.022","189.254"
"6.41135","2229.07","0.0534275","114.311","192.354"
"6.5147","2234.66","0.0542888","114.598","195.454"
"6.61795","2239.41","0.0551492","114.841","198.554"
"6.7213","2244.31","0.0560105","115.093","201.654"
"6.82465","2249.5","0.0568721","115.359","204.754"
"6.928","2254.19","0.0577329","115.599","207.854"
"7.03126","2258.62","0.0585938","115.827","210.954"
"7.1346","2263","0.0594547","116.051","214.054"
"7.238","2267.24","0.0603163","116.268","217.154"
"7.34135","2271.75","0.0611775","116.5","220.254"
"7.44465","2275.63","0.0620384","116.699","223.354"
"7.54795","2279.37","0.0628992","116.891","226.454"
"7.6513","2283.31","0.0637609","117.093","229.554"
"7.7547","2287.17","0.0646221","117.291","232.654"
"7.85795","2290.51","0.0654829","117.462","235.754"
"7.96126","2293.86","0.0663434","117.634","238.854"
"8.06465","2297.15","0.067205","117.803","241.954"
"8.16805","2300.47","0.0680667","117.973","245.054"
"8.27125","2303.31","0.0689271","118.119","248.154"
"8.3746","2306.27","0.069788","118.27","251.254"
"8.478","2309.47","0.07065","118.434","254.354"
"8.58135","2312.06","0.0715108","118.567","257.454"
"8.6846","2315.01","0.0723713","118.718","260.554"
"8.78791","2317.72","0.0732325","118.857","263.654"
"8.89135","2320.7","0.0740946","119.01","266.754"
"8.99465","2323.22","0.0749554","119.139","269.854"
"9.09795","2325.73","0.0758163","119.268","272.954"
"9.2013","2328.08","0.0766771","119.389","276.054"
"9.30465","2330.78","0.0775387","119.5274","279.154"
"9.408","2332.88","0.0783996","119.635","282.254"
"9.5113","2335.02","0.0792604","119.744","285.354"
"9.6146","2337.25","0.0801213","119.859","288.454"
"9.71795","2339.45","0.0809829","119.972","291.554"
"9.82135","2341.63","0.0818442","120.084","294.654"
"9.92465","2343.66","0.082705","120.188","297.754"
"10.0279","2345.73","0.0835659","120.294","300.854"
"10.1313","2347.63","0.0844275","120.391","303.954"
"10.2347","2349.63","0.0852887","120.494","307.054"
"10.338","2351.33","0.0861492","120.581","310.154"
"10.4413","2352.93","0.0870101","120.663","313.254"
"10.5447","2354.96","0.0878721","120.767","316.354"
"10.648","2356.6","0.0887333","120.851","319.454"
"10.7513","2358.23","0.0895938","120.935","322.554"
"10.8546","2359.5","0.0904546","121","325.654"
"10.958","2361.39","0.0913166","121.097","328.754"
"11.0613","2362.81","0.0921775","121.17","331.854"
"11.1646","2364.09","0.093038","121.236","334.954"
"11.2679","2365.43","0.0938992","121.304","338.054"
"11.3713","2367.15","0.0947612","121.392","341.154"
"11.4747","2368.45","0.0956221","121.459","344.254"
"11.5779","2369.42","0.0964825","121.5088","347.354"
"11.6813","2370.47","0.0973438","121.563","350.454"
"11.7846","2372.07","0.0982054","121.6444","353.554"
"11.888","2373.15","0.0990663","121.7","356.654"
"11.9913","2374.21","0.0999271","121.754","359.754"
"12.0946","2375.49","0.100788","121.82","362.854"
"12.198","2376.65","0.10165","121.879","365.954"
"12.3013","2377.93","0.102511","121.945","369.054"
"12.4046","2378.75","0.103372","121.9874","372.154"
"12.5079","2379.68","0.104233","122.035","375.254"
"12.6113","2381.02","0.105094","122.104","378.354"
"12.7147","2381.7","0.105955","122.138","381.454"
"12.8179","2382.72","0.106816","122.191","384.554"
"12.9213","2383.51","0.107677","122.231","387.654"
"13.0246","2384.63","0.108538","122.289","390.754"
"13.128","2385.85","0.1094","122.351","393.854"
"13.2313","2386.52","0.11026","122.385","396.954"
"13.3346","2386.96","0.111121","122.408","400.054"
"13.438","2388.17","0.111983","122.47","403.154"
"13.5413","2389.15","0.112844","122.52","406.254"
"13.6446","2389.83","0.113705","122.556","409.354"
"13.7479","2390.31","0.114566","122.58","412.454"
"13.8513","2391.15","0.115428","122.623","415.554"
"13.9546","2392.27","0.116289","122.681","418.654"
"14.0579","2392.8","0.11715","122.708","421.754"
"14.1613","2393.49","0.11801","122.743","424.854"
"14.2646","2394.28","0.118872","122.783","427.954"
"14.368","2394.81","0.119733","122.811","431.054"
"14.4713","2395.12","0.120594","122.8268","434.154"
"14.5746","2396.11","0.121455","122.877","437.254"
"14.678","2396.79","0.122316","122.913","440.354"
"14.7814","2397.55","0.123178","122.951","443.454"
"14.8846","2398.11","0.124038","122.98","446.554"
"14.9879","2398.83","0.124899","123.017","449.654"
"15.0913","2399.36","0.125761","123.044","452.754"
"15.1947","2400.14","0.126622","123.084","455.854"
"15.2979","2400.53","0.127483","123.104","458.954"
"15.4012","2400.92","0.128343","123.124","462.054"
"15.5047","2401.77","0.129205","123.168","465.154"
"15.608","2402.46","0.130067","123.203","468.254"
"15.7113","2403.17","0.130927","123.24","471.354"
"15.8146","2403.49","0.131788","123.256","474.454"
"15.918","2404.36","0.13265","123.301","477.554"
"16.0213","2405.08","0.133511","123.338","480.654"
"16.1246","2405.36","0.134372","123.352","483.754"
"16.2279","2405.98","0.135232","123.384","486.854"
"16.3313","2406.48","0.136095","123.409","489.954"
"16.4347","2407.22","0.136955","123.447","493.054"
"16.5379","2407.31","0.137816","123.452","496.154"
"16.6413","2408.09","0.138677","123.492","499.254"
"16.7446","2408.44","0.139539","123.51","502.354"
"16.848","2408.95","0.1404","123.536","505.454"
"16.9513","2409.27","0.14126","123.552","508.554"
"17.0546","2409.69","0.142122","123.574","511.654"
"17.158","2410.15","0.142983","123.597","514.754"
"17.2613","2410.38","0.143845","123.609","517.854"
"17.3646","2411.12","0.144705","123.647","520.954"
"17.4679","2410.96","0.145566","123.639","524.054"
"17.5713","2411.56","0.146427","123.67","527.154"
"17.6747","2412.12","0.147289","123.699","530.254"
"17.7779","2412.44","0.148149","123.715","533.354"
"17.8812","2412.55","0.14901","123.721","536.454"
"17.9846","2413.18","0.149872","123.753","539.554"
"18.088","2413.4","0.150733","123.764","542.654"
"18.1913","2413.71","0.151594","123.78","545.754"
"18.2946","2414.11","0.152455","123.801","548.854"
"18.398","2414.53","0.153317","123.822","551.954"
"18.5013","2414.86","0.154177","123.839","555.054"
"18.6046","2414.86","0.155038","123.839","558.154"
"18.7079","2415.34","0.155899","123.864","561.254"
"18.8113","2415.98","0.156761","123.896","564.354"
"18.9146","2416.21","0.157622","123.908","567.454"
"19.0179","2415.55","0.158483","123.875","570.554"
"19.1213","2415.69","0.159344","123.881","573.654"
"19.2246","2414.47","0.160205","123.819","576.754"
"19.328","2414.54","0.161067","123.822","579.854"
"19.4313","2413.02","0.161927","123.745","582.954"
"19.5346","2410.47","0.162788","123.614","586.054"
"19.638","2405.28","0.16365","123.348","589.154"
"19.7414","1943.08","0.164511","99.645","592.254"
"19.8279","123.694","0.165233","6.34329","594.846"