Folder: MFRPPO/experimental_data/tensile_specimen_test_data/tensile_test_data/20250312/original_data/without_extensometer/SSS 6 03-12-25 20 02 49 下午

Note: README.md
# MFRPPO
Enhanced Mechanical Properties of 3D Printed Composites via Continuous Metal Fiber Reinforcement and Process Parameter Optimization

File: 数采：横梁, … - (实时值).csv
"文件路径: C:\Users\Lenovo\Desktop\Wayne\20250312\原始数据\无引伸计\SSS 6 03-12-25 20 02 49 下午\数采：横梁, … - (实时值).csv   "
"试验: MTS EM 拉伸试验-W 3"
"试验运行: SSS 6"
"日期: 2025/3/12 19:28:29"
""
""
"横梁 ","力 ","应变 ","应力 ","时间 "
"mm","N","mm/mm","N/mm²","sec"
"0.00270132","67.0809","2.21229e-05","3.44005","0.112"
"0.109916","708.288","0.000915577","36.3225","3.312"
"0.216664","1253.14","0.00180515","64.2637","6.512"
"0.32332","1717.15","0.00269395","88.0591","9.712"
"0.429882","2081.86","0.00358197","106.762","12.912"
"0.536585","2345.49","0.00447115","120.282","16.112"
"0.643287","2550.56","0.00536033","130.798","19.312"
"0.749989","2724.05","0.00624952","139.695","22.512"
"0.856598","2872.02","0.00713793","147.283","25.712"
"0.963207","3000.2","0.00802634","153.856","28.912"
"1.06991","3111.42","0.00891552","159.56","32.112"
"1.17666","3207.26","0.00980509","164.475","35.312"
"1.28327","3290.13","0.0106935","168.725","38.512"
"1.38988","3362.53","0.0115823","172.438","41.712"
"1.49658","3426.69","0.0124711","175.728","44.912"
"1.60328","3483.68","0.0133603","178.65","48.112"
"1.70998","3535.21","0.0142495","181.293","51.312"
"1.81659","3581.5","0.0151383","183.667","54.512"
"1.92325","3623.7","0.0160267","185.831","57.712"
"2.0299","3662.48","0.0169155","187.82","60.912"
"2.13665","3699.31","0.0178054","189.708","64.112"
"2.24331","3732.59","0.0186938","191.415","67.312"
"2.34992","3764.49","0.0195822","193.051","70.512"
"2.45657","3794.53","0.020471","194.591","73.712"
"2.56327","3823.21","0.0213602","196.062","76.912"
"2.66998","3851.12","0.0222494","197.493","80.112"
"2.77658","3877.04","0.0231378","198.822","83.312"
"2.88324","3902.63","0.0240266","200.135","86.512"
"2.98994","3927.44","0.0249158","201.407","89.712"
"3.0966","3951.25","0.025805","202.628","92.912"
"3.20325","3973.78","0.0266934","203.784","96.112"
"3.30996","3996.75","0.0275826","204.961","99.312"
"3.41656","4018.53","0.028471","206.078","102.512"
"3.52327","4039.89","0.0293606","207.174","105.712"
"3.62997","4060.49","0.0302493","208.23","108.912"
"3.73658","4080.61","0.0311378","209.262","112.112"
"3.84328","4100.99","0.0320269","210.307","115.312"
"3.94994","4120.03","0.0329161","211.284","118.512"
"4.05664","4138.76","0.0338049","212.244","121.712"
"4.16329","4156.99","0.0346937","213.179","124.912"
"4.2699","4174.41","0.0355821","214.072","128.112"
"4.3766","4192.34","0.0364713","214.992","131.312"
"4.48331","4209.97","0.0373609","215.896","134.512"
"4.58991","4226.03","0.0382489","216.72","137.712"
"4.69657","4242.41","0.0391377","217.559","140.912"
"4.80323","4258.67","0.0400269","218.393","144.112"
"4.90997","4274.62","0.0409161","219.211","147.312"
"5.01658","4289.85","0.0418049","219.992","150.512"
"5.12324","4304.31","0.0426933","220.734","153.712"
"5.2299","4318.95","0.0435825","221.485","156.912"
"5.3366","4332.97","0.0444713","222.204","160.112"
"5.44335","4347.46","0.0453608","222.947","163.312"
"5.54991","4360.44","0.0462492","223.612","166.512"
"5.65656","4373.1","0.047138","224.262","169.712"
"5.76327","4385.86","0.0480268","224.916","172.912"
"5.86997","4398.29","0.048916","225.5532","176.112"
"5.97667","4410.72","0.0498052","226.191","179.312"
"6.08323","4421.43","0.0506932","226.74","182.512"
"6.18989","4433.24","0.051582","227.346","185.712"
"6.29664","4444.84","0.0524716","227.941","188.912"
"6.40329","4455.83","0.0533604","228.504","192.112"
"6.50995","4466.64","0.0542492","229.059","195.312"
"6.61656","4476.9","0.055138","229.585","198.512"
"6.72321","4487.01","0.0560264","230.103","201.712"
"6.82996","4497.52","0.0569163","230.642","204.912"
"6.93662","4507.44","0.0578051","231.151","208.112"
"7.04327","4516.35","0.0586935","231.608","211.312"
"7.14988","4525.49","0.0595823","232.077","214.512"
"7.25658","4534.46","0.0604715","232.536","217.712"
"7.36329","4543.47","0.0613607","232.999","220.912"
"7.46994","4550.89","0.0622495","233.379","224.112"
"7.5766","4559.04","0.0631379","233.797","227.312"
"7.68325","4567.53","0.0640267","234.232","230.512"
"7.79","4575.78","0.0649163","234.655","233.712"
"7.89661","4583.39","0.0658047","235.046","236.912"
"8.00327","4590.37","0.0666935","235.403","240.112"
"8.10992","4598.64","0.0675823","235.828","243.312"
"8.21658","4605.57","0.0684715","236.183","246.512"
"8.32328","4613.47","0.0693603","236.588","249.712"
"8.42993","4620.03","0.0702491","236.9248","252.912"
"8.53659","4627.06","0.0711379","237.285","256.112"
"8.64325","4634.02","0.0720267","237.642","259.312"
"8.74999","4640.5","0.0729162","237.975","262.512"
"8.8566","4646.56","0.0738046","238.285","265.712"
"8.96326","4652.53","0.0746934","238.591","268.912"
"9.06996","4658.99","0.0755826","238.923","272.112"
"9.17662","4665.18","0.0764718","239.24","275.312"
"9.28332","4671.18","0.0773606","239.548","278.512"
"9.38993","4675.53","0.078249","239.771","281.712"
"9.49654","4681.16","0.0791378","240.059","284.912"
"9.60329","4686.94","0.0800274","240.356","288.112"
"9.70994","4692.27","0.0809162","240.629","291.312"
"9.81655","4697.81","0.0818046","240.913","294.512"
"9.92325","4703.04","0.0826934","241.182","297.712"
"10.0299","4708.35","0.0835822","241.454","300.912"
"10.1367","4714.32","0.0844717","241.76","304.112"
"10.2433","4719.43","0.0853605","242.022","307.312"
"10.3499","4723.86","0.0862486","242.249","310.512"
"10.4566","4728.9","0.0871377","242.508","313.712"
"10.5633","4733.16","0.0880273","242.726","316.912"
"10.67","4738.82","0.0889165","243.017","320.112"
"10.7766","4742.95","0.0898049","243.228","323.312"
"10.8832","4747.54","0.0906933","243.464","326.512"
"10.9899","4752.54","0.0915825","243.72","329.712"
"11.0967","4757.16","0.0924721","243.957","332.912"
"11.2033","4761.15","0.0933605","244.161","336.112"
"11.3099","4764.44","0.0942489","244.33","339.312"
"11.4166","4768.91","0.0951377","244.56","342.512"
"11.5233","4772.7","0.0960269","244.754","345.712"
"11.63","4776.85","0.0969161","244.967","348.912"
"11.7366","4780.93","0.0978049","245.176","352.112"
"11.8432","4785","0.0986933","245.385","355.312"
"11.9499","4789.06","0.0995821","245.593","358.512"
"12.0566","4793.69","0.100472","245.83","361.712"
"12.1633","4797.61","0.10136","246.032","364.912"
"12.2699","4801.46","0.102249","246.229","368.112"
"12.3766","4805.34","0.103138","246.428","371.312"
"12.4833","4809.45","0.104027","246.638","374.512"
"12.59","4813.61","0.104916","246.852","377.712"
"12.6966","4816.85","0.105805","247.018","380.912"
"12.8032","4820.65","0.106693","247.213","384.112"
"12.9099","4824.27","0.107583","247.3984","387.312"
"13.0166","4828.05","0.108472","247.592","390.512"
"13.1232","4830.9","0.10936","247.739","393.712"
"13.2299","4834.24","0.110249","247.91","396.912"
"13.3366","4837.69","0.111138","248.087","400.112"
"13.4433","4841.52","0.112027","248.283","403.312"
"13.55","4845.17","0.112916","248.47","406.512"
"13.6566","4847.91","0.113804","248.611","409.712"
"13.7633","4851.51","0.114694","248.796","412.912"
"13.8699","4854.74","0.115582","248.961","416.112"
"13.9766","4858.23","0.116472","249.14","419.312"
"14.0833","4860.99","0.11736","249.282","422.512"
"14.1899","4863.96","0.118249","249.4336","425.712"
"14.2966","4867.3","0.119138","249.605","428.912"
"14.4033","4870.34","0.120027","249.761","432.112"
"14.5099","4872.17","0.120916","249.855","435.312"
"14.6166","4875.28","0.121805","250.014","438.512"
"14.7233","4878.02","0.122693","250.155","441.712"
"14.83","4881.15","0.123583","250.315","444.912"
"14.9366","4884.21","0.124471","250.472","448.112"
"15.0432","4886.64","0.12536","250.597","451.312"
"15.1499","4888.72","0.126249","250.703","454.512"
"15.2566","4891.33","0.127138","250.837","457.712"
"15.3633","4894.15","0.128027","250.982","460.912"
"15.4699","4895.79","0.128916","251.066","464.112"
"15.5766","4898.29","0.129804","251.194","467.312"
"15.6833","4900.86","0.130693","251.326","470.512"
"15.79","4903.61","0.131583","251.467","473.712"
"15.8967","4906.13","0.132472","251.596","476.912"
"16.0032","4907.86","0.13336","251.685","480.112"
"16.1099","4910.33","0.134249","251.812","483.312"
"16.2166","4912.7","0.135139","251.933","486.512"
"16.3233","4915.25","0.136027","252.064","489.712"
"16.4299","4917.59","0.136916","252.184","492.912"
"16.5366","4919.33","0.137805","252.273","496.112"
"16.6432","4921.5","0.138693","252.384","499.312"
"16.75","4924.29","0.139583","252.528","502.512"
"16.8566","4926.01","0.140472","252.616","505.712"
"16.9633","4927.15","0.14136","252.674","508.912"
"17.0699","4927.22","0.142249","252.678","512.112"
"17.1766","4928.37","0.143138","252.737","515.312"
"17.2833","4930.86","0.144027","252.865","518.512"
"17.3899","4932.41","0.144916","252.944","521.712"
"17.4966","4934.44","0.145805","253.048","524.912"
"17.6032","4936.23","0.146693","253.14","528.112"
"17.71","4937.93","0.147583","253.227","531.312"
"17.8166","4939.4","0.148471","253.303","534.512"
"17.9233","4941.11","0.14936","253.39","537.712"
"18.0299","4942.51","0.150249","253.462","540.912"
"18.1366","4943.23","0.151138","253.499","544.112"
"18.2433","4942.87","0.152027","253.481","547.312"
"18.3499","4941.75","0.152916","253.423","550.512"
"18.4566","4944.19","0.153804","253.548","553.712"
"18.5632","4945.16","0.154693","253.598","556.912"
"18.67","4946.12","0.155583","253.647","560.112"
"18.7766","4940.93","0.156471","253.381","563.312"
"18.8833","4942.08","0.15736","253.44","566.512"
"18.99","4942.28","0.158249","253.451","569.712"
"19.0966","4941.98","0.159138","253.435","572.912"
"19.2033","4932.02","0.160027","252.924","576.112"
"19.3099","4922.23","0.160916","252.422","579.312"
"19.4166","4307.94","0.161805","220.92","582.512"
"19.5233","4173.76","0.162694","214.039","585.712"
"19.63","4150.09","0.163583","212.825","588.912"
"19.7366","4089.72","0.164471","209.729","592.112"
"19.8432","2440.42","0.16536","125.149","595.312"
"19.9499","2453.41","0.166249","125.816","598.512"
"20.0566","2460.8","0.167138","126.195","601.712"
"20.1633","2466.9","0.168027","126.508","604.912"
"20.2699","2471.1","0.168916","126.723","608.112"
"20.3766","2471.81","0.169804","126.759","611.312"
"20.4833","2421.19","0.170694","124.164","614.512"
"20.5332","41.973","0.17111","2.152463","615.998"