Folder: MFRPPO/experimental_data/tensile_specimen_test_data/tensile_test_data/20250312/original_data/without_extensometer/SSS 3 03-12-25 17 51 23 下午

Note: README.md
# MFRPPO
Enhanced Mechanical Properties of 3D Printed Composites via Continuous Metal Fiber Reinforcement and Process Parameter Optimization

File: 数采：横梁, … - (实时值).csv
"文件路径: C:\Users\Lenovo\Desktop\Wayne\20250312\原始数据\无引伸计\SSS 3 03-12-25 17 51 23 下午\数采：横梁, … - (实时值).csv   "
"试验: MTS EM 拉伸试验-W 3"
"试验运行: SSS 3"
"日期: 2025/3/12 17:07:07"
""
""
"横梁 ","力 ","应变 ","应力 ","时间 "
"mm","N","mm/mm","N/mm²","sec"
"0.00260817","-48.0935","2.17348e-05","-2.6425","0.1"
"0.13991","472.922","0.00116553","25.9847","4.2"
"0.276606","926.291","0.00230466","50.8951","8.3"
"0.413255","1262.92","0.00344341","69.3915","12.4"
"0.549905","1496.4","0.00458254","82.2197","16.5"
"0.686601","1662.72","0.00572129","91.3583","20.6"
"0.823251","1785.04","0.00686003","98.0789","24.7"
"0.9599","1873.79","0.00799878","102.956","28.8"
"1.09664","1948.77","0.0091383","107.075","32.9"
"1.23325","2010.31","0.0102767","110.457","37"
"1.3699","2062.05","0.0114154","113.299","41.1"
"1.50659","2095.84","0.0125545","115.156","45.2"
"1.64324","2142.82","0.0136937","117.737","49.3"
"1.77994","2180.02","0.0148328","119.781","53.4"
"1.91654","2213.79","0.0159712","121.637","57.5"
"2.05324","2245.03","0.0171103","123.354","61.6"
"2.18989","2265.98","0.0182487","124.504","65.7"
"2.32658","2297.54","0.0193882","126.238","69.8"
"2.46328","2319.07","0.0205269","127.421","73.9"
"2.59993","2344","0.0216657","128.791","78"
"2.73658","2368.55","0.0228044","130.14","82.1"
"2.87323","2391.96","0.0239432","131.426","86.2"
"3.00992","2414.58","0.0250823","132.669","90.3"
"3.14662","2436.62","0.0262214","133.88","94.4"
"3.28322","2457.45","0.0273598","135.025","98.5"
"3.41996","2477.71","0.0284997","136.138","102.6"
"3.55652","2497.2","0.0296373","137.209","106.7"
"3.69326","2516.81","0.0307768","138.286","110.8"
"3.82991","2535.34","0.0319155","139.304","114.9"
"3.96661","2553.38","0.0330551","140.296","119"
"4.10321","2567.84","0.034193","141.09","123.1"
"4.23991","2585.27","0.0353326","142.048","127.2"
"4.3766","2601.2","0.0364713","142.923","131.3"
"4.51325","2617.25","0.0376104","143.805","135.4"
"4.64986","2631.92","0.0387484","144.611","139.5"
"4.78665","2647.05","0.0398883","145.442","143.6"
"4.9232","2660.45","0.0410267","146.1784","147.7"
"5.05999","2674.41","0.0421662","146.946","151.8"
"5.19655","2687.5","0.0433042","147.665","155.9"
"5.33329","2692.89","0.0444437","147.961","160"
"5.46985","2708.47","0.0455821","148.817","164.1"
"5.60664","2721.17","0.0467216","149.515","168.2"
"5.74324","2731.93","0.0478599","150.106","172.3"
"5.87993","2743.26","0.0489991","150.728","176.4"
"6.01658","2753.69","0.0501378","151.302","180.5"
"6.15328","2763.81","0.0512769","151.858","184.6"
"6.28988","2772.77","0.0524153","152.35","188.7"
"6.42663","2782.53","0.0535548","152.886","192.8"
"6.56323","2749.8","0.0546932","151.088","196.9"
"6.69997","2790.68","0.0558327","153.334","201"
"6.83653","2799.57","0.0569707","153.822","205.1"
"6.97327","2809.02","0.0581106","154.342","209.2"
"7.10987","2816.99","0.0592489","154.78","213.3"
"7.24662","2825.15","0.0603885","155.228","217.4"
"7.38322","2832.44","0.0615264","155.629","221.5"
"7.51996","2839.67","0.062666","156.026","225.6"
"7.65661","2846.45","0.0638047","156.398","229.7"
"7.79326","2853.41","0.0649435","156.781","233.8"
"7.92986","2859.72","0.0660822","157.128","237.9"
"8.06661","2866.25","0.0672217","157.486","242"
"8.20321","2872.19","0.0683601","157.813","246.1"
"8.33995","2878.38","0.0694992","158.153","250.2"
"8.47656","2883.79","0.070638","158.45","254.3"
"8.61325","2889.52","0.0717771","158.765","258.4"
"8.74985","2894.7","0.0729154","159.049","262.5"
"8.88664","2899.96","0.074055","159.338","266.6"
"9.02325","2904.68","0.0751933","159.598","270.7"
"9.1599","2909.78","0.0763325","159.878","274.8"
"9.29659","2914.8","0.0774712","160.154","278.9"
"9.43324","2919.45","0.07861","160.409","283"
"9.56989","2923.31","0.0797487","160.621","287.1"
"9.70659","2927.77","0.0808878","160.867","291.2"
"9.84328","2932.11","0.082027","161.105","295.3"
"9.97993","2936.28","0.0831657","161.334","299.4"
"10.1165","2940.31","0.0843045","161.556","303.5"
"10.2533","2944.21","0.0854436","161.77","307.6"
"10.3899","2948.48","0.0865823","162.005","311.7"
"10.5266","2951.8","0.0877211","162.187","315.8"
"10.6632","2955.83","0.0888602","162.408","319.9"
"10.7999","2959.28","0.089999","162.598","324"
"10.9366","2962.88","0.0911381","162.796","328.1"
"11.0732","2966.37","0.0922765","162.9876","332.2"
"11.2099","2969.97","0.093416","163.185","336.3"
"11.3466","2973.2","0.0945543","163.363","340.4"
"11.4833","2976.43","0.0956939","163.54","344.5"
"11.6199","2979.42","0.0968322","163.704","348.6"
"11.7566","2982.73","0.0979714","163.886","352.7"
"11.8933","2985.66","0.0991101","164.047","356.8"
"12.0299","2987.66","0.100249","164.157","360.9"
"12.1666","2990.71","0.101388","164.325","365"
"12.3033","2993.79","0.102527","164.494","369.1"
"12.4399","2996.28","0.103665","164.631","373.2"
"12.5766","2999.45","0.104805","164.805","377.3"
"12.7132","3001.92","0.105943","164.941","381.4"
"12.8499","3004.63","0.107082","165.09","385.5"
"12.9865","3006.7","0.108221","165.203","389.6"
"13.1233","3009.68","0.109361","165.367","393.7"
"13.2599","3012.01","0.110499","165.4948","397.8"
"13.3966","3014.26","0.111638","165.619","401.9"
"13.5333","3016.74","0.112777","165.755","406"
"13.6699","3019.34","0.113916","165.898","410.1"
"13.8065","3021.2","0.115054","166","414.2"
"13.9433","3024.09","0.116194","166.159","418.3"
"14.0799","3026.04","0.117332","166.266","422.4"
"14.2166","3028.15","0.118472","166.382","426.5"
"14.3532","3029.82","0.11961","166.474","430.6"
"14.49","3032.38","0.120749","166.614","434.7"
"14.6265","3033","0.121887","166.648","438.8"
"14.7633","3035.45","0.123027","166.783","442.9"
"14.8999","3037.3","0.124166","166.885","447"
"15.0366","3039.69","0.125305","167.016","451.1"
"15.1733","3041.48","0.126444","167.114","455.2"
"15.31","3043.63","0.127583","167.232","459.3"
"15.4465","3044.78","0.128721","167.296","463.4"
"15.5833","3046.87","0.129861","167.411","467.5"
"15.7199","3048.62","0.130999","167.507","471.6"
"15.8567","3050.46","0.132138","167.608","475.7"
"15.9932","3051.91","0.133276","167.687","479.8"
"16.13","3053.95","0.134416","167.799","483.9"
"16.2666","3055.58","0.135554","167.889","488"
"16.4033","3057.21","0.136694","167.979","492.1"
"16.5399","3058.75","0.137832","168.063","496.2"
"16.6766","3059.14","0.138972","168.085","500.3"
"16.8132","3059.96","0.14011","168.13","504.4"
"16.9499","3061.59","0.141249","168.219","508.5"
"17.0865","3063.35","0.142387","168.316","512.6"
"17.2233","3065.24","0.143527","168.42","516.7"
"17.3599","3066.76","0.144666","168.503","520.8"
"17.4966","3068.31","0.145805","168.589","524.9"
"17.6332","3069.59","0.146943","168.659","529"
"17.7699","3071.26","0.148082","168.751","533.1"
"17.9066","3072.82","0.149221","168.837","537.2"
"18.0433","3074.45","0.15036","168.926","541.3"
"18.1799","3075.83","0.151499","169.001","545.4"
"18.3166","3077.4","0.152638","169.088","549.5"
"18.4533","3077.32","0.153777","169.083","553.6"
"18.5899","3078.32","0.154916","169.138","557.7"
"18.7266","3080.13","0.156054","169.238","561.8"
"18.8632","3081.47","0.157194","169.311","565.9"
"19","3082.94","0.158333","169.393","570"
"19.1366","3083.89","0.159471","169.444","574.1"
"19.2733","3085.2","0.16061","169.5164","578.2"
"19.41","3086.77","0.161749","169.603","582.3"
"19.5466","3087.67","0.162888","169.652","586.4"
"19.6832","3088.56","0.164026","169.701","590.5"
"19.8199","3090.09","0.165166","169.785","594.6"
"19.9566","3091.27","0.166305","169.85","598.7"
"20.0933","3092.75","0.167444","169.931","602.8"
"20.2299","3093.53","0.168582","169.974","606.9"
"20.3666","3095.21","0.169722","170.066","611"
"20.5032","3095.75","0.17086","170.096","615.1"
"20.6399","3097.54","0.171999","170.194","619.2"
"20.7765","3098.65","0.173138","170.256","623.3"
"20.9132","3100.05","0.174277","170.332","627.4"
"21.0499","3101.02","0.175415","170.386","631.5"
"21.1866","3102.54","0.176555","170.469","635.6"
"21.3232","3103.64","0.177693","170.53","639.7"
"21.4599","3105.18","0.178832","170.6144","643.8"
"21.5965","3105.34","0.179971","170.623","647.9"
"21.7333","3103.87","0.181111","170.543","652"
"21.8699","3105.6","0.182249","170.637","656.1"
"22.0066","3107.01","0.183388","170.715","660.2"
"22.1432","3107.67","0.184527","170.751","664.3"
"22.28","3108.59","0.185666","170.802","668.4"
"22.4165","3109.1","0.186804","170.83","672.5"
"22.5533","3110.32","0.187944","170.897","676.6"
"22.6899","3111.66","0.189083","170.97","680.7"
"22.8266","3112.55","0.190221","171.019","684.8"
"22.9632","3113","0.19136","171.044","688.9"
"23.1","3114.06","0.192499","171.102","693"
"23.2366","3112.23","0.193638","171.001","697.1"
"23.3733","3112.84","0.194777","171.035","701.2"
"23.5099","3113.66","0.195915","171.08","705.3"
"23.6466","3114.36","0.197055","171.118","709.4"
"23.7832","3114.83","0.198193","171.145","713.5"
"23.92","3115.78","0.199333","171.197","717.6"
"24.0566","3116.92","0.200471","171.26","721.7"
"24.1933","3117.6","0.20161","171.297","725.8"
"24.3299","3118.23","0.202749","171.331","729.9"
"24.4666","3118.15","0.203888","171.327","734"
"24.6032","3118.76","0.205027","171.36","738.1"
"24.7399","3119.73","0.206166","171.414","742.2"
"24.8765","3120.28","0.207304","171.444","746.3"
"25.0133","3120.88","0.208444","171.477","750.4"
"25.1499","3121.27","0.209582","171.498","754.5"
"25.2866","3122.14","0.210722","171.546","758.6"
"25.4232","3122.75","0.21186","171.58","762.7"
"25.5599","3122.99","0.212999","171.593","766.8"
"25.6965","3121.45","0.214138","171.508","770.9"
"25.8333","3118.63","0.215277","171.353","775"
"25.9699","3119.34","0.216416","171.392","779.1"
"26.1066","3116.96","0.217554","171.262","783.2"
"26.2432","3116.18","0.218693","171.219","787.3"
"26.3799","3116.25","0.219833","171.2224","791.4"
"26.5166","3116.05","0.220971","171.2116","795.5"
"26.6533","3115.65","0.22211","171.19","799.6"
"26.7899","3111.8","0.223249","170.978","803.7"
"26.9266","3108.26","0.224388","170.7836","807.8"
"27.0632","3107.22","0.225527","170.726","811.9"
"27.2","3104.52","0.226666","170.578","816"
"27.3366","3079.82","0.227805","169.221","820.1"
"27.4732","2805.24","0.228943","154.134","824.2"
"27.491","-121.812","0.229091","-6.69297","824.724"