Folder: MFRPPO/experimental_data/tensile_specimen_test_data/TXT

Note: README.md
# MFRPPO
Enhanced Mechanical Properties of 3D Printed Composites via Continuous Metal Fiber Reinforcement and Process Parameter Optimization

File: (2)R2001314-0.2,0.2-0.5.txt
0.6657 0.5000 0.2000
121.8657 0.5000 0.2000
168.9000 12.9000 0.2000
47.7000 12.9000 0.2000
64.1000 1.5000 0.2000
185.3000 1.5000 0.2000
101.7000 11.9000 0.2000
13.9000 2.5000 0.2000
135.1000 2.5000 0.2000
147.9000 10.9000 0.2000
26.7000 10.9000 0.2000
92.9000 3.5000 0.2000
186.1000 9.9000 0.2000
64.9000 9.9000 0.2000
58.7000 4.5000 0.2000
179.9000 4.5000 0.2000
95.1000 8.9000 0.2000
32.5000 5.5000 0.2000
153.7000 5.5000 0.2000
117.3000 7.9000 0.2000
14.3000 6.5000 0.2000
135.5000 6.5000 0.2000
131.5000 6.9000 0.2000
10.3000 6.9000 0.2000
123.6000 7.4000 0.2000
145.4000 6.0000 0.2000
24.2000 6.0000 0.2000
105.4000 8.4000 0.2000
167.6000 5.0000 0.2000
46.4000 5.0000 0.2000
79.2000 9.4000 0.2000
196.4000 5.4000 0.2000
76.6000 4.0000 0.2000
45.0000 10.4000 0.2000
166.2000 10.4000 0.2000
114.8000 3.0000 0.2000
2.8000 11.4000 0.2000
124.0000 11.4000 0.2000
161.0000 2.0000 0.2000
39.8000 2.0000 0.2000
73.8000 12.4000 0.2000
195.0000 12.4000 0.2000
94.0000 1.0000 0.2000
27.6000 1.0000 0.4000
148.8000 1.0000 0.4000
140.2000 12.4000 0.4000
19.0000 12.4000 0.4000
94.6000 2.0000 0.4000
190.4000 11.4000 0.4000
69.2000 11.4000 0.4000
48.4000 3.0000 0.4000
169.6000 3.0000 0.4000
111.4000 10.4000 0.4000
10.2000 4.0000 0.4000
131.4000 4.0000 0.4000
145.6000 9.4000 0.4000
24.4000 9.4000 0.4000
101.2000 5.0000 0.4000
171.8000 8.4000 0.4000
50.6000 8.4000 0.4000
79.0000 6.0000 0.4000
190.0000 7.4000 0.4000
68.8000 7.4000 0.4000
65.1000 6.9000 0.4000
186.3000 6.9000 0.4000
80.7000 6.5000 0.4000
50.9000 7.9000 0.4000
172.1000 7.9000 0.4000
98.9000 5.5000 0.4000
28.7000 8.9000 0.4000
149.9000 8.9000 0.4000
125.1000 4.5000 0.4000
3.5000 4.9000 0.4000
119.7000 9.9000 0.4000
159.3000 3.5000 0.4000
38.1000 3.5000 0.4000
81.5000 10.9000 0.4000
197.9000 6.1000 0.4000
80.3000 2.5000 0.4000
35.3000 11.9000 0.4000
156.5000 11.9000 0.4000
130.5000 1.5000 0.4000
9.3000 1.5000 0.4000
102.5000 12.9000 0.4000
188.2657 0.5000 0.4000
67.0657 0.5000 0.4000
55.0657 0.5000 0.6000
176.2657 0.5000 0.6000
114.5000 12.9000 0.6000
0.5000 5.7000 0.6000
118.5000 1.5000 0.6000
168.5000 11.9000 0.6000
47.3000 11.9000 0.6000
68.3000 2.5000 0.6000
189.5000 2.5000 0.6000
93.5000 10.9000 0.6000
26.1000 3.5000 0.6000
147.3000 3.5000 0.6000
131.7000 9.9000 0.6000
10.5000 9.9000 0.6000
113.1000 4.5000 0.6000
161.9000 8.9000 0.6000
40.7000 8.9000 0.6000
86.9000 5.5000 0.6000
184.1000 7.9000 0.6000
62.9000 7.9000 0.6000
68.7000 6.5000 0.6000
189.9000 6.5000 0.6000
77.1000 6.9000 0.6000
56.8000 7.4000 0.6000
178.0000 7.4000 0.6000
91.0000 6.0000 0.6000
38.6000 8.4000 0.6000
159.8000 8.4000 0.6000
113.2000 5.0000 0.6000
12.4000 9.4000 0.6000
133.6000 9.4000 0.6000
143.4000 4.0000 0.6000
22.2000 4.0000 0.6000
99.4000 10.4000 0.6000
181.6000 3.0000 0.6000
60.4000 3.0000 0.6000
57.2000 11.4000 0.6000
178.4000 11.4000 0.6000
106.6000 2.0000 0.6000
7.0000 12.4000 0.6000
128.2000 12.4000 0.6000
160.8000 1.0000 0.6000
39.6000 1.0000 0.6000
82.0000 1.0000 0.8000
199.4000 4.8000 0.8000
85.8000 12.4000 0.8000
27.8000 2.0000 0.8000
149.0000 2.0000 0.8000
136.0000 11.4000 0.8000
14.8000 11.4000 0.8000
102.8000 3.0000 0.8000
178.2000 10.4000 0.8000
57.0000 10.4000 0.8000
64.6000 4.0000 0.8000
185.8000 4.0000 0.8000
91.2000 9.4000 0.8000
34.4000 5.0000 0.8000
155.6000 5.0000 0.8000
117.4000 8.4000 0.8000
12.2000 6.0000 0.8000
133.4000 6.0000 0.8000
135.6000 7.4000 0.8000
14.4000 7.4000 0.8000
119.5000 6.9000 0.8000
147.5000 6.5000 0.8000
26.3000 6.5000 0.8000
105.3000 7.9000 0.8000
165.7000 5.5000 0.8000
44.5000 5.5000 0.8000
83.1000 8.9000 0.8000
191.9000 4.5000 0.8000
70.7000 4.5000 0.8000
52.9000 9.9000 0.8000
174.1000 9.9000 0.8000
104.9000 3.5000 0.8000
14.7000 10.9000 0.8000
135.9000 10.9000 0.8000
147.1000 2.5000 0.8000
25.9000 2.5000 0.8000
89.7000 11.9000 0.8000
197.3000 1.5000 0.8000
76.1000 1.5000 0.8000
35.7000 12.9000 0.8000
156.9000 12.9000 0.8000
133.8657 0.5000 0.8000
12.6657 0.5000 0.8000
109.4657 0.5000 1.0000
181.3000 12.9000 1.0000
60.1000 12.9000 1.0000
51.7000 1.5000 1.0000
172.9000 1.5000 1.0000
114.1000 11.9000 1.0000
1.5000 3.3000 1.0000
122.7000 2.5000 1.0000
160.3000 10.9000 1.0000
39.1000 10.9000 1.0000
80.5000 3.5000 1.0000
196.9000 8.3000 1.0000
77.3000 9.9000 1.0000
46.3000 4.5000 1.0000
167.5000 4.5000 1.0000
107.5000 8.9000 1.0000
20.1000 5.5000 1.0000
141.3000 5.5000 1.0000
129.7000 7.9000 1.0000
8.5000 7.9000 1.0000
123.1000 6.5000 1.0000
143.9000 6.9000 1.0000
22.7000 6.9000 1.0000
111.2000 7.4000 1.0000
157.8000 6.0000 1.0000
36.6000 6.0000 1.0000
93.0000 8.4000 1.0000
180.0000 5.0000 1.0000
58.8000 5.0000 1.0000
66.8000 9.4000 1.0000
188.0000 9.4000 1.0000
89.0000 4.0000 1.0000
32.6000 10.4000 1.0000
153.8000 10.4000 1.0000
127.2000 3.0000 1.0000
6.0000 3.0000 1.0000
111.6000 11.4000 1.0000
173.4000 2.0000 1.0000
52.2000 2.0000 1.0000
61.4000 12.4000 1.0000
182.6000 12.4000 1.0000
106.4000 1.0000 1.0000
15.2000 1.0000 1.2000
136.4000 1.0000 1.2000
152.6000 12.4000 1.2000
31.4000 12.4000 1.2000
82.2000 2.0000 1.2000
198.4000 7.0000 1.2000
81.6000 11.4000 1.2000
36.0000 3.0000 1.2000
157.2000 3.0000 1.2000
123.8000 10.4000 1.2000
3.0000 10.0000 1.2000
119.0000 4.0000 1.2000
158.0000 9.4000 1.2000
36.8000 9.4000 1.2000
88.8000 5.0000 1.2000
184.2000 8.4000 1.2000
63.0000 8.4000 1.2000
66.6000 6.0000 1.2000
187.8000 6.0000 1.2000
81.2000 7.4000 1.2000
52.7000 6.9000 1.2000
173.9000 6.9000 1.2000
93.1000 6.5000 1.2000
38.5000 7.9000 1.2000
159.7000 7.9000 1.2000
111.3000 5.5000 1.2000
16.3000 8.9000 1.2000
137.5000 8.9000 1.2000
137.5000 4.5000 1.2000
16.3000 4.5000 1.2000
107.3000 9.9000 1.2000
171.7000 3.5000 1.2000
50.5000 3.5000 1.2000
69.1000 10.9000 1.2000
190.3000 10.9000 1.2000
92.7000 2.5000 1.2000
22.9000 11.9000 1.2000
144.1000 11.9000 1.2000
142.9000 1.5000 1.2000
21.7000 1.5000 1.2000
90.1000 12.9000 1.2000
199.9000 1.3828 1.2000
79.4657 0.5000 1.2000
42.6657 0.5000 1.4000
163.8657 0.5000 1.4000
126.9000 12.9000 1.4000
5.7000 12.9000 1.4000
106.1000 1.5000 1.4000
180.9000 11.9000 1.4000
59.7000 11.9000 1.4000
55.9000 2.5000 1.4000
177.1000 2.5000 1.4000
105.9000 10.9000 1.4000
13.7000 3.5000 1.4000
134.9000 3.5000 1.4000
144.1000 9.9000 1.4000
22.9000 9.9000 1.4000
100.7000 4.5000 1.4000
174.3000 8.9000 1.4000
53.1000 8.9000 1.4000
74.5000 5.5000 1.4000
194.9000 6.3000 1.4000
75.3000 7.9000 1.4000
56.3000 6.5000 1.4000
177.5000 6.5000 1.4000
89.5000 6.9000 1.4000
44.4000 7.4000 1.4000
165.6000 7.4000 1.4000
103.4000 6.0000 1.4000
26.2000 8.4000 1.4000
147.4000 8.4000 1.4000
125.6000 5.0000 1.4000
4.0000 5.4000 1.4000
121.2000 9.4000 1.4000
155.8000 4.0000 1.4000
34.6000 4.0000 1.4000
87.0000 10.4000 1.4000
194.0000 3.0000 1.4000
72.8000 3.0000 1.4000
44.8000 11.4000 1.4000
166.0000 11.4000 1.4000
119.0000 2.0000 1.4000
1.0000 6.0000 1.4000
115.8000 12.4000 1.4000
173.2000 1.0000 1.4000
52.0000 1.0000 1.4000
0.5000 0.9000 1.4000

File: (3)RD2001314-0.2,0.15.txt
0.6657 0.5000 0.2000
172.2657 0.5000 0.2000
68.1000 12.9000 0.2000
94.1000 1.5000 0.2000
142.5000 11.9000 0.2000
23.5000 2.5000 0.2000
195.1000 2.5000 0.2000
37.5000 10.9000 0.2000
132.5000 3.5000 0.2000
96.1000 9.9000 0.2000
77.9000 4.5000 0.2000
146.7000 8.9000 0.2000
31.3000 5.5000 0.2000
189.3000 7.9000 0.2000
17.7000 7.9000 0.2000
164.3000 6.5000 0.2000
52.3000 6.9000 0.2000
132.0000 7.4000 0.2000
86.6000 6.0000 0.2000
93.4000 8.4000 0.2000
129.2000 5.0000 0.2000
46.8000 9.4000 0.2000
179.8000 4.0000 0.2000
8.2000 4.0000 0.2000
163.8000 10.4000 0.2000
66.8000 3.0000 0.2000
101.2000 11.4000 0.2000
133.4000 2.0000 0.2000
30.6000 12.4000 0.2000
199.4000 9.6000 0.2000
36.4000 1.0000 0.2000
135.5000 0.9000 0.3500
103.5000 12.5000 0.3500
59.9000 1.7000 0.3500
175.9000 11.7000 0.3500
4.3000 11.7000 0.3500
162.3000 2.5000 0.3500
70.3000 10.9000 0.3500
99.5000 3.3000 0.3500
129.9000 10.1000 0.3500
43.1000 4.1000 0.3500
183.1000 9.3000 0.3500
11.5000 9.3000 0.3500
164.7000 4.9000 0.3500
58.3000 8.5000 0.3500
121.1000 5.7000 0.3500
98.7000 7.7000 0.3500
83.9000 6.5000 0.3500
132.7000 6.9000 0.3500
51.9000 7.3000 0.3500
166.3000 6.1000 0.3500
14.7000 8.1000 0.3500
186.3000 8.1000 0.3500
35.1000 5.3000 0.3500
142.7000 8.9000 0.3500
81.9000 4.5000 0.3500
92.7000 9.7000 0.3500
135.1000 3.7000 0.3500
36.3000 10.5000 0.3500
194.7000 2.9000 0.3500
23.1000 2.9000 0.3500
145.1000 11.3000 0.3500
89.1000 2.1000 0.3500
75.9000 12.1000 0.3500
161.5000 1.3000 0.3500
0.5000 12.5000 0.3500
171.7000 12.9000 0.3500
68.6657 0.5000 0.3500
103.8657 0.5000 0.5000
136.5000 12.9000 0.5000
25.7000 1.5000 0.5000
197.3000 1.5000 0.5000
39.3000 11.9000 0.5000
126.7000 2.5000 0.5000
105.9000 10.9000 0.5000
64.1000 3.5000 0.5000
164.5000 9.9000 0.5000
9.5000 4.5000 0.5000
181.1000 4.5000 0.5000
43.5000 8.9000 0.5000
134.5000 5.5000 0.5000
86.1000 7.9000 0.5000
95.9000 6.5000 0.5000
120.7000 6.9000 0.5000
63.6000 7.4000 0.5000
155.0000 6.0000 0.5000
25.0000 8.4000 0.5000
195.4000 7.2000 0.5000
26.0000 5.0000 0.5000
150.0000 9.4000 0.5000
76.6000 4.0000 0.5000
95.4000 10.4000 0.5000
135.2000 3.0000 0.5000
32.8000 11.4000 0.5000
198.4000 5.4000 0.5000
30.2000 2.0000 0.5000
133.8000 12.4000 0.5000
104.8000 1.0000 0.5000
67.1000 0.9000 0.6500
171.9000 12.5000 0.6500
0.9000 11.9000 0.6500
163.1000 1.7000 0.6500
72.7000 11.7000 0.6500
93.9000 2.5000 0.6500
138.7000 10.9000 0.6500
31.1000 3.3000 0.6500
197.1000 8.9000 0.6500
26.7000 10.1000 0.6500
146.3000 4.1000 0.6500
79.9000 9.3000 0.6500
96.3000 4.9000 0.6500
126.7000 8.5000 0.6500
52.7000 5.7000 0.6500
167.1000 7.7000 0.6500
15.5000 6.5000 0.6500
187.1000 6.5000 0.6500
29.5000 6.9000 0.6500
155.1000 7.3000 0.6500
63.1000 6.1000 0.6500
117.9000 8.1000 0.6500
103.5000 5.3000 0.6500
74.3000 8.9000 0.6500
150.3000 4.5000 0.6500
24.3000 9.7000 0.6500
195.9000 9.7000 0.6500
31.9000 3.7000 0.6500
139.5000 10.5000 0.6500
91.5000 2.9000 0.6500
76.7000 11.3000 0.6500
157.5000 2.1000 0.6500
7.5000 12.1000 0.6500
179.1000 12.1000 0.6500
58.3000 1.3000 0.6500
103.3000 12.9000 0.6500
137.0657 0.5000 0.6500
35.4657 0.5000 0.8000
199.9000 7.7828 0.8000
33.3000 12.9000 0.8000
128.9000 1.5000 0.8000
107.7000 11.9000 0.8000
58.3000 2.5000 0.8000
174.3000 10.9000 0.8000
2.7667 10.8333 0.8000
167.3000 3.5000 0.8000
61.3000 9.9000 0.8000
112.7000 4.5000 0.8000
111.9000 8.9000 0.8000
66.1000 5.5000 0.8000
154.5000 7.9000 0.8000
27.5000 6.5000 0.8000
189.1000 6.9000 0.8000
17.5000 6.9000 0.8000
166.8000 7.4000 0.8000
51.8000 6.0000 0.8000
128.2000 8.4000 0.8000
94.4000 5.0000 0.8000
81.6000 9.4000 0.8000
145.0000 4.0000 0.8000
27.0000 10.4000 0.8000
197.4000 9.2000 0.8000
32.0000 3.0000 0.8000
136.0000 11.4000 0.8000
98.6000 2.0000 0.8000
65.4000 12.4000 0.8000
173.2000 1.0000 0.8000
1.6000 1.0000 0.8000
170.3000 0.9000 0.9500
68.7000 12.5000 0.9500
94.7000 1.7000 0.9500
141.1000 11.7000 0.9500
25.5000 2.5000 0.9500
197.1000 2.5000 0.9500
35.5000 10.9000 0.9500
134.3000 3.3000 0.9500
95.1000 10.1000 0.9500
77.9000 4.1000 0.9500
148.3000 9.3000 0.9500
27.9000 4.9000 0.9500
195.1000 8.5000 0.9500
23.5000 8.5000 0.9500
155.9000 5.7000 0.9500
63.9000 7.7000 0.9500
118.7000 6.5000 0.9500
97.9000 6.9000 0.9500
86.7000 7.3000 0.9500
131.5000 6.1000 0.9500
49.5000 8.1000 0.9500
171.9000 5.3000 0.9500
5.9000 8.9000 0.9500
177.5000 8.9000 0.9500
47.1000 4.5000 0.9500
127.5000 9.7000 0.9500
100.3000 3.7000 0.9500
71.1000 10.5000 0.9500
159.9000 2.9000 0.9500
8.3000 11.3000 0.9500
179.9000 11.3000 0.9500
54.3000 2.1000 0.9500
110.7000 12.1000 0.9500
126.7000 1.3000 0.9500
34.9000 12.9000 0.9500
199.9000 6.1828 0.9500
33.8657 0.5000 0.9500
138.6657 0.5000 1.1000
101.7000 12.9000 1.1000
60.5000 1.5000 1.1000
176.1000 11.9000 1.1000
4.5000 11.9000 1.1000
161.5000 2.5000 1.1000
71.1000 10.9000 1.1000
98.9000 3.5000 1.1000
129.7000 9.9000 1.1000
44.3000 4.5000 1.1000
180.3000 8.9000 1.1000
8.7000 8.9000 1.1000
169.3000 5.5000 1.1000
51.3000 7.9000 1.1000
130.7000 6.5000 1.1000
85.9000 6.9000 1.1000
98.4000 7.4000 1.1000
120.2000 6.0000 1.1000
59.8000 8.4000 1.1000
162.8000 5.0000 1.1000
13.2000 9.4000 1.1000
184.8000 9.4000 1.1000
41.8000 4.0000 1.1000
130.2000 10.4000 1.1000
100.4000 3.0000 1.1000
67.6000 11.4000 1.1000
167.0000 2.0000 1.1000
1.0000 8.4000 1.1000
168.6000 12.4000 1.1000
70.0000 1.0000 1.1000
101.9000 0.9000 1.2500
137.1000 12.5000 1.2500
26.3000 1.7000 1.2500
197.9000 1.7000 1.2500
37.9000 11.7000 1.2500
128.7000 2.5000 1.2500
103.9000 10.9000 1.2500
65.9000 3.3000 1.2500
163.5000 10.1000 1.2500
9.5000 4.1000 1.2500
181.1000 4.1000 1.2500
45.1000 9.3000 1.2500
131.1000 4.9000 1.2500
91.9000 8.5000 1.2500
87.5000 5.7000 1.2500
132.3000 7.7000 1.2500
50.3000 6.5000 1.2500
166.3000 6.9000 1.2500
18.3000 7.3000 1.2500
189.9000 7.3000 1.2500
28.3000 6.1000 1.2500
152.7000 8.1000 1.2500
68.7000 5.3000 1.2500
109.1000 8.9000 1.2500
115.5000 4.5000 1.2500
59.1000 9.7000 1.2500
168.7000 3.7000 1.2500
2.9667 10.2333 1.2500
174.3000 10.5000 1.2500
56.7000 2.9000 1.2500
111.5000 11.3000 1.2500
122.7000 2.1000 1.2500
42.3000 12.1000 1.2500
195.1000 1.3000 1.2500
23.5000 1.3000 1.2500
138.1000 12.9000 1.2500
102.2657 0.5000 1.2500
70.2657 0.5000 1.4000
170.1000 12.9000 1.4000
0.5000 10.9000 1.4000
163.7000 1.5000 1.4000
72.9000 11.9000 1.4000
93.1000 2.5000 1.4000
139.5000 10.9000 1.4000
30.5000 3.5000 1.4000
196.9000 8.7000 1.4000
26.5000 9.9000 1.4000
147.5000 4.5000 1.4000
77.1000 8.9000 1.4000
100.9000 5.5000 1.4000
119.7000 7.9000 1.4000
62.3000 6.5000 1.4000
154.3000 6.9000 1.4000
30.0000 7.4000 1.4000
188.6000 6.0000 1.4000
17.0000 6.0000 1.4000
163.0000 8.4000 1.4000
59.6000 5.0000 1.4000
116.4000 9.4000 1.4000
110.2000 4.0000 1.4000
61.8000 10.4000 1.4000
168.8000 3.0000 1.4000
2.0000 8.6000 1.4000
170.8000 11.4000 1.4000
63.8000 2.0000 1.4000
100.2000 12.4000 1.4000
138.4000 1.0000 1.4000
0.5000 0.9000 1.4000

File: (4)RD2001315-0.2,0.13.txt
0.6657 0.5000 0.2000
199.9000 11.7828 0.2000
0.5000 2.9000 0.2000
197.7000 11.9000 0.2000
7.1000 2.5000 0.2000
186.7000 10.9000 0.2000
22.1000 3.5000 0.2000
167.7000 9.9000 0.2000
45.1000 4.5000 0.2000
140.7000 8.9000 0.2000
76.1000 5.5000 0.2000
105.7000 7.9000 0.2000
115.1000 6.5000 0.2000
62.7000 6.9000 0.2000
160.4000 7.4000 0.2000
19.4000 6.0000 0.2000
194.8000 5.0000 0.2000
20.0000 9.4000 0.2000
167.8000 4.0000 0.2000
43.0000 10.4000 0.2000
148.8000 3.0000 0.2000
58.0000 11.4000 0.2000
137.8000 2.0000 0.2000
65.0000 12.4000 0.2000
134.8000 1.0000 0.2000
75.9000 0.9000 0.3300
124.3000 12.5000 0.3300
77.9000 1.7000 0.3300
119.1000 11.7000 0.3300
86.3000 2.5000 0.3300
107.5000 10.9000 0.3300
101.1000 3.3000 0.3300
89.5000 10.1000 0.3300
122.3000 4.1000 0.3300
65.1000 9.3000 0.3300
149.9000 4.9000 0.3300
34.3000 8.5000 0.3300
183.9000 5.7000 0.3300
13.9000 6.5000 0.3300
163.9000 6.9000 0.3300
59.5000 7.3000 0.3300
119.9000 6.1000 0.3300
99.9000 8.1000 0.3300
82.7000 5.3000 0.3300
133.9000 8.9000 0.3300
51.9000 4.5000 0.3300
161.5000 9.7000 0.3300
27.5000 3.7000 0.3300
182.7000 10.5000 0.3300
9.5000 2.9000 0.3300
197.5000 11.3000 0.3300
1.3000 6.3000 0.3300
199.1000 5.3000 0.3300
0.5000 9.7000 0.3300
199.9000 4.9828 0.3300
7.0657 0.5000 0.4600
194.5000 12.9000 0.4600
6.5000 1.5000 0.4600
191.3000 11.9000 0.4600
13.5000 2.5000 0.4600
180.3000 10.9000 0.4600
28.5000 3.5000 0.4600
161.3000 9.9000 0.4600
51.5000 4.5000 0.4600
134.3000 8.9000 0.4600
82.5000 5.5000 0.4600
99.3000 7.9000 0.4600
121.5000 6.5000 0.4600
56.3000 6.9000 0.4600
166.8000 7.4000 0.4600
13.0000 6.0000 0.4600
188.4000 5.0000 0.4600
26.4000 9.4000 0.4600
161.4000 4.0000 0.4600
49.4000 10.4000 0.4600
142.4000 3.0000 0.4600
64.4000 11.4000 0.4600
131.4000 2.0000 0.4600
71.4000 12.4000 0.4600
128.4000 1.0000 0.4600
82.3000 0.9000 0.5900
117.9000 12.5000 0.5900
84.3000 1.7000 0.5900
112.7000 11.7000 0.5900
92.7000 2.5000 0.5900
101.1000 10.9000 0.5900
107.5000 3.3000 0.5900
83.1000 10.1000 0.5900
128.7000 4.1000 0.5900
58.7000 9.3000 0.5900
156.3000 4.9000 0.5900
27.9000 8.5000 0.5900
190.3000 5.7000 0.5900
20.3000 6.5000 0.5900
157.5000 6.9000 0.5900
65.9000 7.3000 0.5900
113.5000 6.1000 0.5900
106.3000 8.1000 0.5900
76.3000 5.3000 0.5900
140.3000 8.9000 0.5900
45.5000 4.5000 0.5900
167.9000 9.7000 0.5900
21.1000 3.7000 0.5900
189.1000 10.5000 0.5900
2.9000 2.9667 0.5900
198.3000 5.7000 0.5900
1.9000 12.1000 0.5900
196.7000 1.3000 0.5900
3.7000 12.9000 0.5900
197.8657 0.5000 0.5900
13.4657 0.5000 0.7200
188.1000 12.9000 0.7200
12.9000 1.5000 0.7200
184.9000 11.9000 0.7200
19.9000 2.5000 0.7200
173.9000 10.9000 0.7200
34.9000 3.5000 0.7200
154.9000 9.9000 0.7200
57.9000 4.5000 0.7200
127.9000 8.9000 0.7200
88.9000 5.5000 0.7200
92.9000 7.9000 0.7200
127.9000 6.5000 0.7200
49.9000 6.9000 0.7200
173.2000 7.4000 0.7200
6.6000 6.0000 0.7200
182.0000 5.0000 0.7200
32.8000 9.4000 0.7200
155.0000 4.0000 0.7200
55.8000 10.4000 0.7200
136.0000 3.0000 0.7200
70.8000 11.4000 0.7200
125.0000 2.0000 0.7200
77.8000 12.4000 0.7200
122.0000 1.0000 0.7200
88.7000 0.9000 0.8500
111.5000 12.5000 0.8500
90.7000 1.7000 0.8500
106.3000 11.7000 0.8500
99.1000 2.5000 0.8500
94.7000 10.9000 0.8500
113.9000 3.3000 0.8500
76.7000 10.1000 0.8500
135.1000 4.1000 0.8500
52.3000 9.3000 0.8500
162.7000 4.9000 0.8500
21.5000 8.5000 0.8500
194.5667 7.5667 0.8500
26.7000 6.5000 0.8500
151.1000 6.9000 0.8500
72.3000 7.3000 0.8500
107.1000 6.1000 0.8500
112.7000 8.1000 0.8500
69.9000 5.3000 0.8500
146.7000 8.9000 0.8500
39.1000 4.5000 0.8500
174.3000 9.7000 0.8500
14.7000 3.7000 0.8500
195.5000 10.5000 0.8500
2.1000 9.1000 0.8500
195.5000 2.1000 0.8500
8.3000 12.1000 0.8500
190.3000 1.3000 0.8500
10.1000 12.9000 0.8500
191.4657 0.5000 0.8500
19.8657 0.5000 0.9800
181.7000 12.9000 0.9800
19.3000 1.5000 0.9800
178.5000 11.9000 0.9800
26.3000 2.5000 0.9800
167.5000 10.9000 0.9800
41.3000 3.5000 0.9800
148.5000 9.9000 0.9800
64.3000 4.5000 0.9800
121.5000 8.9000 0.9800
95.3000 5.5000 0.9800
86.5000 7.9000 0.9800
134.3000 6.5000 0.9800
43.5000 6.9000 0.9800
179.6000 7.4000 0.9800
8.2000 8.4000 0.9800
175.6000 5.0000 0.9800
39.2000 9.4000 0.9800
148.6000 4.0000 0.9800
62.2000 10.4000 0.9800
129.6000 3.0000 0.9800
77.2000 11.4000 0.9800
118.6000 2.0000 0.9800
84.2000 12.4000 0.9800
115.6000 1.0000 0.9800
95.1000 0.9000 1.1100
105.1000 12.5000 1.1100
97.1000 1.7000 1.1100
99.9000 11.7000 1.1100
105.5000 2.5000 1.1100
88.3000 10.9000 1.1100
120.3000 3.3000 1.1100
70.3000 10.1000 1.1100
141.5000 4.1000 1.1100
45.9000 9.3000 1.1100
169.1000 4.9000 1.1100
15.1000 8.5000 1.1100
188.3000 7.7000 1.1100
33.1000 6.5000 1.1100
144.7000 6.9000 1.1100
78.7000 7.3000 1.1100
100.7000 6.1000 1.1100
119.1000 8.1000 1.1100
63.5000 5.3000 1.1100
153.1000 8.9000 1.1100
32.7000 4.5000 1.1100
180.7000 9.7000 1.1100
8.3000 3.7000 1.1100
197.5000 6.1000 1.1100
6.3000 11.3000 1.1100
189.1000 2.1000 1.1100
14.7000 12.1000 1.1100
183.9000 1.3000 1.1100
16.5000 12.9000 1.1100
185.0657 0.5000 1.1100
26.2657 0.5000 1.2400
175.3000 12.9000 1.2400
25.7000 1.5000 1.2400
172.1000 11.9000 1.2400
32.7000 2.5000 1.2400
161.1000 10.9000 1.2400
47.7000 3.5000 1.2400
142.1000 9.9000 1.2400
70.7000 4.5000 1.2400
115.1000 8.9000 1.2400
101.7000 5.5000 1.2400
80.1000 7.9000 1.2400
140.7000 6.5000 1.2400
37.1000 6.9000 1.2400
186.0000 7.4000 1.2400
14.6000 8.4000 1.2400
169.2000 5.0000 1.2400
45.6000 9.4000 1.2400
142.2000 4.0000 1.2400
68.6000 10.4000 1.2400
123.2000 3.0000 1.2400
83.6000 11.4000 1.2400
112.2000 2.0000 1.2400
90.6000 12.4000 1.2400
109.2000 1.0000 1.2400
101.5000 0.9000 1.3700
98.7000 12.5000 1.3700
103.5000 1.7000 1.3700
93.5000 11.7000 1.3700
111.9000 2.5000 1.3700
81.9000 10.9000 1.3700
126.7000 3.3000 1.3700
63.9000 10.1000 1.3700
147.9000 4.1000 1.3700
39.5000 9.3000 1.3700
175.5000 4.9000 1.3700
8.7000 8.5000 1.3700
181.9000 7.7000 1.3700
39.5000 6.5000 1.3700
138.3000 6.9000 1.3700
85.1000 7.3000 1.3700
94.3000 6.1000 1.3700
125.5000 8.1000 1.3700
57.1000 5.3000 1.3700
159.5000 8.9000 1.3700
26.3000 4.5000 1.3700
187.1000 9.7000 1.3700
2.9000 5.5000 1.3700
194.3000 2.9000 1.3700
12.7000 11.3000 1.3700
182.7000 2.1000 1.3700
21.1000 12.1000 1.3700
177.5000 1.3000 1.3700
22.9000 12.9000 1.3700
178.6657 0.5000 1.3700
32.6657 0.5000 1.5000
168.9000 12.9000 1.5000
32.1000 1.5000 1.5000
165.7000 11.9000 1.5000
39.1000 2.5000 1.5000
154.7000 10.9000 1.5000
54.1000 3.5000 1.5000
135.7000 9.9000 1.5000
77.1000 4.5000 1.5000
108.7000 8.9000 1.5000
108.1000 5.5000 1.5000
73.7000 7.9000 1.5000
147.1000 6.5000 1.5000
30.7000 6.9000 1.5000
192.4000 7.4000 1.5000
21.0000 8.4000 1.5000
162.8000 5.0000 1.5000
52.0000 9.4000 1.5000
135.8000 4.0000 1.5000
75.0000 10.4000 1.5000
116.8000 3.0000 1.5000
90.0000 11.4000 1.5000
105.8000 2.0000 1.5000
97.0000 12.4000 1.5000
102.8000 1.0000 1.5000
0.5000 0.9000 1.5000