Folder: MFRPPO/experimental_data/tensile_specimen_test_data/tensile_test_data/20250310/SSS 1 03-10-25 15 32 05 下午

Note: README.md
# MFRPPO
Enhanced Mechanical Properties of 3D Printed Composites via Continuous Metal Fiber Reinforcement and Process Parameter Optimization

File: 数采：横梁, … - (实时值)1.csv
"文件路径: C:\Users\Lenovo\Desktop\Wayne\SSS 1 03-10-25 15 32 05 下午\数采：横梁, … - (实时值).csv   "
"试验: MTS EM 拉伸试验-W"
"试验运行: SSS 1"
"日期: 2025/3/10 15:01:34"
""
""
"横梁 ","力 ","应变 ","应力 ","时间 "
"mm","N","mm/mm","N/mm²","sec"
"0.00405198","15.1863","3.08108e-05","0.778783","0.152"
"0.10456","335.252","0.000804305","17.1924","3.152"
"0.204602","623.806","0.0015735","31.9901","6.152"
"0.304597","878.474","0.0023427","45.0499","9.152"
"0.404546","1070.43","0.00311189","54.8938","12.152"
"0.504541","1194.75","0.00388073","61.26902","15.152"
"0.60463","1287.16","0.00465064","66.00834","18.152"
"0.704579","1362.33","0.00541948","69.863","21.152"
"0.804528","1425.26","0.00618832","73.0903","24.152"
"0.904616","1478.21","0.00695823","75.80568","27.152"
"1.00461","1525.47","0.00772742","78.229","30.152"
"1.10461","1566.76","0.00849662","80.3464","33.152"
"1.20456","1603.28","0.00926581","82.2196","36.152"
"1.3046","1636.51","0.010035","83.9233","39.152"
"1.40459","1666.28","0.0108046","85.4503","42.152"
"1.50454","1694.17","0.011573","86.8806","45.152"
"1.60454","1719.92","0.0123426","88.201","48.152"
"1.70463","1744.39","0.0131121","89.45612","51.152"
"1.80457","1763.14","0.013881","90.4172","54.152"
"1.90457","1787.1","0.0146502","91.64612","57.152"
"2.00461","1807.72","0.0154197","92.7034","60.152"
"2.10461","1828.07","0.0161889","93.7473","63.152"
"2.20456","1847.72","0.0169578","94.7546","66.152"
"2.30455","1858.52","0.017727","95.3088","69.152"
"2.40459","1877.94","0.0184965","96.30444","72.152"
"2.50464","1895.89","0.0192661","97.225","75.152"
"2.60454","1913.09","0.0200345","98.1071","78.152"
"2.70458","1930.1","0.0208041","98.97964","81.152"
"2.80458","1946.33","0.0215737","99.81192","84.152"
"2.90457","1962.78","0.0223425","100.656","87.152"
"3.00457","1978.49","0.0231117","101.461","90.152"
"3.10456","1994.12","0.0238809","102.263","93.152"
"3.2046","2009.23","0.0246504","103.037","96.152"
"3.30455","2023.65","0.0254196","103.777","99.152"
"3.40455","2037.98","0.0261885","104.5116","102.152"
"3.50459","2051.72","0.0269584","105.217","105.152"
"3.60459","2065.39","0.0277276","105.917","108.152"
"3.70453","2078.46","0.0284964","106.587","111.152"
"3.80458","2091.3","0.029266","107.246","114.152"
"3.90462","2103.96","0.0300352","107.895","117.152"
"4.00457","2115.85","0.030804","108.505","120.152"
"4.10452","2127.78","0.0315732","109.117","123.152"
"4.20456","2139.21","0.0323424","109.703","126.152"
"4.3046","2150.47","0.0331123","110.281","129.152"
"4.40455","2161.29","0.0338808","110.835","132.152"
"4.50454","2171.84","0.0346503","111.376","135.152"
"4.60468","2182.14","0.0354203","111.904","138.152"
"4.70458","2191.4","0.0361887","112.379","141.152"
"4.80453","2200.17","0.0369576","112.829","144.152"
"4.90457","2210.08","0.0377271","113.338","147.152"
"5.00461","2219.21","0.0384967","113.806","150.152"
"5.10461","2227.58","0.0392659","114.235","153.152"
"5.20456","2235.99","0.0400347","114.666","156.152"
"5.30465","2244.06","0.0408046","115.08","159.152"
"5.40464","2251.7","0.0415738","115.472","162.152"
"5.5045","2259.08","0.0423423","115.85","165.152"
"5.60454","2266.53","0.0431115","116.232","168.152"
"5.70458","2273.89","0.043881","116.61","171.152"
"5.80458","2280.55","0.0446502","116.952","174.152"
"5.90457","2287.4","0.0454194","117.302","177.152"
"6.00457","2294.1","0.046189","117.646","180.152"
"6.10466","2299.9","0.0469585","117.944","183.152"
"6.20461","2305.55","0.0477274","118.233","186.152"
"6.30451","2311.29","0.0484962","118.528","189.152"
"6.4046","2317.17","0.0492658","118.829","192.152"
"6.50459","2322.73","0.050035","119.114","195.152"
"6.60454","2327.59","0.0508042","119.363","198.152"
"6.70458","2332.99","0.0515737","119.641","201.152"
"6.80462","2337.77","0.0523429","119.885","204.152"
"6.90457","2342","0.0531117","120.102","207.152"
"7.00452","2346.47","0.0538809","120.332","210.152"
"7.10456","2351.07","0.0546501","120.567","213.152"
"7.20461","2355.17","0.0554197","120.778","216.152"
"7.30456","2359.29","0.0561885","120.9894","219.152"
"7.4046","2363.07","0.0569581","121.183","222.152"
"7.50464","2367.26","0.0577276","121.398","225.152"
"7.60459","2370.3","0.0584965","121.554","228.152"
"7.70454","2138.52","0.0592653","109.668","231.152"
"7.80458","2256.91","0.0600349","115.739","234.152"
"7.90457","2335.23","0.0608044","119.755","237.152"
"8.00462","2358.26","0.0615736","120.936","240.152"
"8.10456","2364.71","0.0623425","121.267","243.152"
"8.20461","2369.28","0.063112","121.501","246.152"
"8.3046","2373.57","0.0638812","121.722","249.152"
"8.4045","2377.2","0.06465","121.908","252.152"
"8.50455","2381.4","0.0654192","122.123","255.152"
"8.60459","2385.47","0.0661891","122.332","258.152"
"8.70463","2388.71","0.0669583","122.498","261.152"
"8.80458","2391.67","0.0677275","122.65","264.152"
"8.90457","2394.99","0.0684964","122.82","267.152"
"9.00462","2398.15","0.0692659","122.9818","270.152"
"9.10457","2400.82","0.0700351","123.119","273.152"
"9.20451","2403.51","0.0708036","123.257","276.152"
"9.3046","2406.45","0.0715735","123.408","279.152"
"9.40465","2409.22","0.0723431","123.55","282.152"
"9.50459","2406.02","0.0731119","123.386","285.152"
"9.60459","2410.84","0.0738811","123.633","288.152"
"9.70458","2413.56","0.0746503","123.772","291.152"
"9.80458","2415.55","0.0754195","123.8746","294.152"
"9.90453","2417.78","0.0761883","123.989","297.152"
"10.0045","2419.57","0.0769579","124.081","300.152"
"10.1047","2421.68","0.0777278","124.189","303.152"
"10.2046","2422.26","0.0784966","124.218","306.152"
"10.3046","2424.08","0.0792655","124.312","309.152"
"10.4046","2426.04","0.0800354","124.412","312.152"
"10.5046","2427.85","0.0808042","124.505","315.152"
"10.6045","2429.48","0.0815731","124.589","318.152"
"10.7045","2431.18","0.0823426","124.676","321.152"
"10.8046","2432.88","0.0831118","124.763","324.152"
"10.9046","2434.63","0.0838814","124.853","327.152"
"11.0045","2435.71","0.0846498","124.908","330.152"
"11.1046","2437.61","0.0854197","125.006","333.152"
"11.2047","2439.11","0.0861893","125.082","336.152"
"11.3046","2440.39","0.0869578","125.148","339.152"
"11.4046","2441.82","0.087727","125.221","342.152"
"11.5046","2443.21","0.0884965","125.293","345.152"
"11.6046","2444.51","0.0892661","125.36","348.152"
"11.7046","2445.52","0.0900349","125.411","351.152"
"11.8045","2446.89","0.0908041","125.481","354.152"
"11.9046","2448.17","0.0915737","125.547","357.152"
"12.0046","2449.37","0.0923429","125.609","360.152"
"12.1045","2450.37","0.0931113","125.66","363.152"
"12.2046","2451.6","0.0938813","125.7232","366.152"
"12.3046","2449.67","0.0946504","125.624","369.152"
"12.4046","2451.92","0.0954193","125.74","372.152"
"12.5045","2453.31","0.0961885","125.811","375.152"
"12.6046","2454.88","0.096958","125.891","378.152"
"12.7046","2455.54","0.0977276","125.925","381.152"
"12.8046","2456.24","0.0984964","125.961","384.152"
"12.9046","2457.24","0.0992656","126.012","387.152"
"13.0046","2458.11","0.100036","126.057","390.152"
"13.1046","2459.02","0.100804","126.104","393.152"
"13.2045","2459.7","0.101573","126.138","396.152"
"13.3046","2460.48","0.102343","126.178","399.152"
"13.4046","2461.52","0.103112","126.232","402.152"
"13.5045","2462.28","0.103881","126.271","405.152"
"13.6045","2463.15","0.10465","126.315","408.152"
"13.7046","2463.93","0.10542","126.355","411.152"
"13.8046","2464.52","0.106189","126.386","414.152"
"13.9045","2465.1","0.106958","126.416","417.152"
"14.0046","2465.79","0.107727","126.451","420.152"
"14.1046","2466.51","0.108497","126.488","423.152"
"14.2046","2466.99","0.109266","126.512","426.152"
"14.3046","2466.62","0.110035","126.493","429.152"
"14.4046","2467.13","0.110804","126.52","432.152"
"14.5046","2467.45","0.111573","126.536","435.152"
"14.6046","2467.29","0.112343","126.528","438.152"
"14.7045","2467.58","0.113111","126.543","441.152"
"14.8046","2467.13","0.113881","126.519","444.152"
"14.9046","2467.86","0.114651","126.557","447.152"
"15.0045","2467.69","0.115419","126.548","450.152"
"15.1046","2468.21","0.116189","126.575","453.152"
"15.2046","2468.69","0.116958","126.6","456.152"
"15.3046","2468.79","0.117727","126.605","459.152"
"15.4046","2468.99","0.118497","126.615","462.152"
"15.5046","2468.73","0.119266","126.602","465.152"
"15.6046","2449.14","0.120035","125.597","468.152"
"15.7046","2430.43","0.120804","124.637","471.152"
"15.8045","2425.74","0.121573","124.397","474.152"
"15.9046","2401.21","0.122343","123.139","477.152"
"16.0046","2332.67","0.123112","119.624","480.152"
"16.1045","2285.21","0.123881","117.19","483.152"
"16.2046","2153.73","0.124651","110.448","486.152"
"16.3046","2034.9","0.12542","104.354","489.152"
"16.4046","1969.45","0.126189","100.998","492.152"
"16.5046","1934.69","0.126958","99.2148","495.152"
"16.6046","1908.41","0.127727","97.867","498.152"
"16.7046","1864.38","0.128497","95.6093","501.152"
"16.8045","1789.43","0.129266","91.7654","504.152"
"16.9046","1786.26","0.130035","91.603","507.152"
"17.0047","1767.67","0.130805","90.6495","510.152"
"17.1046","1714.03","0.131574","87.8987","513.152"
"17.2046","906","0.132342","46.4615","516.152"
"17.3046","875.673","0.133112","44.9063","519.152"
"17.4046","888.338","0.133881","45.5558","522.152"
"17.5046","881.597","0.13465","45.21012","525.152"
"17.6045","648.48","0.135419","33.2554","528.152"
"17.7046","646.673","0.136189","33.16271","531.152"
"17.8046","649.995","0.136959","33.3331","534.152"
"17.9045","633.526","0.137727","32.4885","537.152"
"18.0045","625.725","0.138496","32.0885","540.152"
"18.1046","622.388","0.139266","31.9173","543.152"
"18.2046","618.846","0.140035","31.7357","546.152"
"18.3046","600.27","0.140804","30.7831","549.152"
"18.4046","593.794","0.141574","30.451","552.152"
"18.5046","585.702","0.142343","30.036","555.152"
"18.6046","586.003","0.143112","30.0515","558.152"
"18.7045","580.373","0.143881","29.7627","561.152"
"18.8046","580.081","0.14465","29.7477","564.152"
"18.9046","570.511","0.145419","29.257","567.152"
"19.0045","556.861","0.146189","28.557","570.152"
"19.1046","545.018","0.146958","27.9497","573.152"
"19.2046","545.195","0.147727","27.9587","576.152"
"19.3046","546.053","0.148497","28.0027","579.152"
"19.3679","545.469","0.148984","27.9728","581.052"