Folder: MFRPPO/experimental_data/tensile_specimen_test_data/tensile_test_data/20250312/original_data/SSS 16 03-12-25 16 18 12 下午

Note: README.md
# MFRPPO
Enhanced Mechanical Properties of 3D Printed Composites via Continuous Metal Fiber Reinforcement and Process Parameter Optimization

File: 数采：横梁, … - (实时值).csv
"文件路径: C:\Users\Lenovo\Desktop\Wayne\20250312\原始数据\SSS 16 03-12-25 16 18 12 下午\数采：横梁, … - (实时值).csv   "
"试验: 拉伸试验（UNIVER）      视频引伸计采集变形-W 1"
"试验运行: SSS 16"
"日期: 2025/3/12 15:58:46"
""
""
"横梁 ","力 ","视频引伸计变形 ","应变 ","时间 "
"mm","N","mm","mm/mm","sec"
"0.0023753","-194.201","0.0029","5.8e-05","0.1"
"0.106562","439.635","0.1981","0.003962","3.2"
"0.209818","1056.89","0.2879","0.005758","6.3"
"0.31312","1562.71","0.3529","0.007058","9.4"
"0.416516","1947.03","0.403","0.00806","12.5"
"0.519864","2152.22","0.4314","0.008628","15.6"
"0.62312","2327.83","0.4552","0.009104","18.7"
"0.726469","2498.44","0.4776","0.009552","21.8"
"0.829864","2665.08","0.5018","0.010036","24.9"
"0.933166","2826.73","0.5253","0.010506","28"
"1.03647","2983.04","0.5506","0.011012","31.1"
"1.13982","3135.61","0.5758","0.011516","34.2"
"1.24317","3281.58","0.6044","0.012088","37.3"
"1.34651","3420.13","0.6341","0.012682","40.4"
"1.44982","3550.53","0.6665","0.01333","43.5"
"1.55312","3671.3","0.7023","0.014046","46.6"
"1.65647","3782.52","0.7404","0.014808","49.7"
"1.75986","3880.24","0.7774","0.01553","52.8"
"1.86317","3970.9","0.8194","0.016388","55.9"
"1.96642","4051.3","0.866","0.01732","59"
"2.06986","4123.02","0.9182","0.018364","62.1"
"2.17321","4186.67","0.9691","0.019382","65.2"
"2.27647","4243.47","1.0267","0.020534","68.3"
"2.37977","4288.94","1.0826","0.021652","71.4"
"2.48321","4338.03","1.1413","0.022762","74.5"
"2.58656","4381.83","1.2022","0.024044","77.6"
"2.68982","4420.69","1.2657","0.025314","80.7"
"2.79316","4453.66","1.3264","0.026528","83.8"
"2.89651","4491.07","1.39","0.0278","86.9"
"2.99986","4524.08","1.4589","0.029178","90"
"3.10316","4554.88","1.5276","0.030552","93.1"
"3.20642","4583.9","1.5917","0.031834","96.2"
"3.30986","4612.94","1.6611","0.033222","99.3"
"3.41321","4640.2","1.7335","0.03467","102.4"
"3.51651","4655.55","1.8059","0.036118","105.5"
"3.61982","4686.41","1.8737","0.037474","108.6"
"3.72316","4711.04","1.9442","0.038884","111.7"
"3.82651","4735.2","2.3474","0.046948","114.8"
"3.92981","4757.86","2.4274","0.048548","117.9"
"4.03312","4780.21","2.5163","0.050326","121"
"4.13651","4802.12","2.5943","0.051886","124.1"
"4.23986","4823.82","2.6815","0.05363","127.2"
"4.34316","4844.87","2.7681","0.055362","130.3"
"4.44647","4862.82","2.8558","0.057116","133.4"
"4.54986","4866.64","2.9319","0.058638","136.5"
"4.65321","4891.59","3.0094","0.060188","139.6"
"4.75651","4910.06","3.094","0.06188","142.7"
"4.85977","4928.4","3.171","0.06342","145.8"
"4.96316","4946.94","3.2599","0.065198","148.9"
"5.0666","4959.74","3.3299","0.066598","152"
"5.16981","4978.38","3.4109","0.068218","155.1"
"5.27312","4995.77","3.496","0.06992","158.2"
"5.37656","5012.74","3.5773","0.071546","161.3"
"5.47986","5029.08","3.6604","0.073208","164.4"
"5.58312","5044.64","3.7462","0.074924","167.5"
"5.68646","5060.45","3.8294","0.076588","170.6"
"5.78986","5075.76","3.9112","0.078224","173.7"
"5.89321","5090.87","3.9977","0.079954","176.8"
"5.99651","5105.49","4.0799","0.081598","179.9"
"6.09981","5119.34","4.1614","0.083228","183"
"6.20316","5133.29","4.2435","0.08487","186.1"
"6.30651","5146.87","4.3266","0.086532","189.2"
"6.40981","5140.68","4.383","0.08766","192.3"
"6.51312","5165.23","4.4529","0.089058","195.4"
"6.61651","5179.26","4.5359","0.090718","198.5"
"6.71986","5192.4","4.6153","0.092306","201.6"
"6.82316","5204.27","4.6936","0.093872","204.7"
"6.92646","5215.72","4.7751","0.095502","207.8"
"7.02986","5227.64","4.8542","0.097084","210.9"
"7.13321","5238.91","4.9368","0.098736","214"
"7.23646","5249.28","5.0211","0.100422","217.1"
"7.33977","5259.52","5.1037","0.102074","220.2"
"7.44321","5270.16","5.1821","0.103642","223.3"
"7.54656","5280.4","5.2659","0.105318","226.4"
"7.64981","5290.47","5.3484","0.106968","229.5"
"7.75311","5299.76","5.4299","0.108598","232.6"
"7.85651","5309.79","5.5135","0.11027","235.7"
"7.95986","5319.36","5.5962","0.111924","238.8"
"8.06316","5327.8","5.6833","0.113576","241.9"
"8.16646","5336.56","5.7628","0.115256","245"
"8.26986","5345.91","5.846","0.11692","248.1"
"8.37321","5354.05","5.9276","0.118552","251.2"
"8.47651","5362.12","6.0154","0.120308","254.3"
"8.57981","5370.4","6.1013","0.122026","257.4"
"8.68316","5378.39","6.1842","0.123684","260.5"
"8.78651","5386.14","6.267","0.12534","263.6"
"8.88981","5393.77","6.3539","0.127078","266.7"
"8.99311","5400.88","6.4343","0.128686","269.8"
"9.09651","5408.55","6.5155","0.13031","272.9"
"9.19986","5416.5","6.6023","0.132046","276"
"9.30321","5423.57","6.6853","0.133706","279.1"
"9.40646","5429.93","6.7631","0.135204","282.2"
"9.50986","5436.99","6.8485","0.13697","285.3"
"9.61321","5443.92","6.9293","0.138586","288.4"
"9.71651","5450.51","7.0105","0.14021","291.5"
"9.81976","5456.44","7.0983","0.141966","294.6"
"9.92316","5463.69","7.1732","0.143464","297.7"
"10.0266","5470.82","7.257","0.14514","300.8"
"10.1298","5476.11","7.3402","0.146804","303.9"
"10.2331","5482.15","7.4158","0.148316","307"
"10.3366","5488.7","7.5","0.15","310.1"
"10.4399","5494.53","7.5829","0.151658","313.2"
"10.5431","5499.91","7.6627","0.153254","316.3"
"10.6465","5505.31","7.7476","0.154952","319.4"
"10.7499","5511.09","7.8326","0.156652","322.5"
"10.8532","5517.29","7.9157","0.158314","325.6"
"10.9565","5521.98","7.9981","0.159962","328.7"
"11.0598","5525.8","8.0824","0.161648","331.8"
"11.1632","5531.45","8.1658","0.163316","334.9"
"11.2665","5537.24","8.2495","0.16499","338"
"11.3698","5542.18","8.3301","0.166602","341.1"
"11.4731","5547.18","8.415","0.1683","344.2"
"11.5765","5552.25","8.4972","0.169944","347.3"
"11.6799","5557.13","8.5795","0.17159","350.4"
"11.7832","5561.9","8.664","0.17328","353.5"
"11.8865","5566.23","8.7493","0.174986","356.6"
"11.9899","5571.45","8.8335","0.17667","359.7"
"12.0932","5575.88","8.9192","0.178384","362.8"
"12.1965","5580.48","9.0031","0.180062","365.9"
"12.2998","5584.95","9.0831","0.181662","369"
"12.4032","5589.82","9.173","0.18346","372.1"
"12.5066","5594.49","9.2551","0.185102","375.2"
"12.6098","5598.74","9.3391","0.186782","378.3"
"12.7132","5602.36","9.4257","0.188514","381.4"
"12.8165","5606.67","9.5092","0.190184","384.5"
"12.9199","5611.16","9.5958","0.191916","387.6"
"13.0232","5614.95","9.6773","0.193546","390.7"
"13.1265","5618.74","9.7604","0.195208","393.8"
"13.2299","5623.49","9.8466","0.196932","396.9"
"13.3332","5627.77","9.9287","0.198574","400"
"13.4365","5631.73","10.0141","0.200282","403.1"
"13.5398","5635.75","10.0994","0.201988","406.2"
"13.6432","5640.37","10.1812","0.203624","409.3"
"13.7466","5644.46","10.2649","0.205298","412.4"
"13.8498","5648.36","10.3492","0.206984","415.5"
"13.9531","5652.09","10.4322","0.208644","418.6"
"14.0565","5655.83","10.5185","0.21037","421.7"
"14.1599","5659.42","10.6013","0.212026","424.8"
"14.2632","5662.98","10.6864","0.213728","427.9"
"14.3665","5666.07","10.7678","0.215356","431"
"14.4698","5669.96","10.8509","0.217018","434.1"
"14.5732","5674.11","10.9358","0.218716","437.2"
"14.6765","5677.15","11.0211","0.220422","440.3"
"14.7798","5680.49","11.1057","0.222114","443.4"
"14.8832","5684.69","11.1896","0.223792","446.5"
"14.9866","5688.66","11.2768","0.225536","449.6"
"15.0898","5691.45","11.3592","0.227184","452.7"
"15.1932","5694.94","11.4437","0.228874","455.8"
"15.2965","5698.32","11.5299","0.230598","458.9"
"15.3999","5701.65","11.6159","0.232318","462"
"15.5031","5704.72","11.6991","0.233982","465.1"
"15.6065","5708.01","11.785","0.2357","468.2"
"15.7099","5711.6","11.8696","0.237392","471.3"
"15.8132","5715.32","11.9482","0.238964","474.4"
"15.9165","5718.47","12.0328","0.240656","477.5"
"16.0198","5721.03","12.1147","0.242294","480.6"
"16.1232","5724.33","12.197","0.24394","483.7"
"16.2265","5727.08","12.282","0.24564","486.8"
"16.3298","5729.82","12.3723","0.247446","489.9"
"16.4332","5732.45","12.451","0.24902","493"
"16.5365","5735.41","12.5266","0.250532","496.1"
"16.6399","5738.22","12.6101","0.252202","499.2"
"16.7432","5740.68","12.6976","0.253952","502.3"
"16.8465","5743.06","12.7803","0.255606","505.4"
"16.9499","5745.7","12.865","0.2573","508.5"
"17.0532","5748.17","12.9503","0.259006","511.6"
"17.1565","5750.49","13.0314","0.260628","514.7"
"17.2598","5751.88","13.1139","0.262278","517.8"
"17.3632","5754.24","13.2021","0.264042","520.9"
"17.4666","5756.66","13.2821","0.265642","524"
"17.5698","5758.52","13.3641","0.267282","527.1"
"17.6732","5759.65","13.4403","0.268806","530.2"
"17.7765","5762.06","13.5191","0.270382","533.3"
"17.8798","5765.18","13.5956","0.271912","536.4"
"17.9832","5766.79","13.6732","0.273464","539.5"
"18.0865","5769.04","13.7523","0.275046","542.6"
"18.1898","5771.86","13.8307","0.276614","545.7"
"18.2932","5774.15","13.9107","0.278214","548.8"
"18.3965","5775.87","13.9883","0.279766","551.9"
"18.4998","5777.85","14.0682","0.281364","555"
"18.6032","5778","14.1426","0.282852","558.1"
"18.7065","5780.58","14.2182","0.284364","561.2"
"18.8098","5782.27","14.2962","0.285924","564.3"
"18.9132","5784.6","14.3719","0.287438","567.4"
"19.0165","5786.75","14.4451","0.288902","570.5"
"19.1198","5789.28","14.5206","0.290412","573.6"
"19.2231","5791.17","14.5959","0.291918","576.7"
"19.3265","5793.2","14.6677","0.293354","579.8"
"19.4298","5794.95","14.7484","0.294968","582.9"
"19.5332","5796.41","14.8228","0.296456","586"
"19.6365","5798.35","14.8921","0.297842","589.1"
"19.7398","5799.38","14.9676","0.299352","592.2"
"19.8431","5797.26","15.04","0.3008","595.3"
"19.9466","5799.94","15.1088","0.302176","598.4"
"20.0498","5798.36","15.1755","0.30351","601.5"
"20.1531","5798.38","15.24","0.3048","604.6"
"20.2565","5800.77","15.3086","0.306172","607.7"
"20.3598","5802.37","15.371","0.30742","610.8"
"20.4631","5799.02","15.4334","0.308668","613.9"
"20.5665","5790.32","15.4876","0.309752","617"
"20.6699","5788.25","15.54","0.3108","620.1"
"20.7732","5760.88","15.5773","0.311546","623.2"
"20.8765","5725.61","15.6","0.312","626.3"
"20.9798","5677.29","15.6042","0.312084","629.4"
"21.0832","5593.58","15.6049","0.312098","632.5"
"21.1865","5409.84","15.5905","0.31181","635.6"
"21.2898","5296.27","15.5774","0.311548","638.7"
"21.3931","5202.06","15.5728","0.311456","641.8"
"21.4965","4982.43","15.5493","0.310986","644.9"
"21.5964","1739.17","15.0604","0.301208","647.9"