Folder: MFRPPO/experimental_data/tensile_specimen_test_data/tensile_test_data/20250312/original_data/SSS 7 03-12-25 16 18 12 下午

Note: README.md
# MFRPPO
Enhanced Mechanical Properties of 3D Printed Composites via Continuous Metal Fiber Reinforcement and Process Parameter Optimization

File: 数采：横梁, … - (实时值).csv
"文件路径: C:\Users\Lenovo\Desktop\Wayne\20250312\原始数据\SSS 7 03-12-25 16 18 12 下午\数采：横梁, … - (实时值).csv   "
"试验: 拉伸试验（UNIVER）      视频引伸计采集变形-W 1"
"试验运行: SSS 7"
"日期: 2025/3/12 13:09:30"
""
""
"横梁 ","力 ","视频引伸计变形 ","应变 ","时间 "
"mm","N","mm","mm/mm","sec"
"0.00242187","41.946","-0.0004","-8e-06","0.1"
"0.0598948","262.982","0.0554","0.001108","1.8"
"0.116529","471.911","0.0989","0.001978","3.5"
"0.173257","668.646","0.1363","0.002726","5.2"
"0.229892","855.077","0.1739","0.003478","6.9"
"0.286619","1031.09","0.2096","0.004192","8.6"
"0.343254","1189.18","0.2442","0.004884","10.3"
"0.399982","1319.1","0.276","0.00552","12"
"0.45657","1425.1","0.3126","0.006252","13.7"
"0.513251","1514.61","0.3466","0.006932","15.4"
"0.569885","1590.73","0.3811","0.007622","17.1"
"0.626566","1657.91","0.4175","0.00835","18.8"
"0.683201","1716.98","0.4526","0.009052","20.5"
"0.739882","1769.87","0.4877","0.009754","22.2"
"0.796563","1817.79","0.5222","0.010444","23.9"
"0.853244","1861.29","0.5589","0.011178","25.6"
"0.909926","1900.21","0.5947","0.011894","27.3"
"0.966607","1936.34","0.6312","0.012624","29"
"1.02324","1969","0.6661","0.013322","30.7"
"1.07992","1999.29","0.7036","0.014072","32.4"
"1.1366","2026.86","0.7384","0.014768","34.1"
"1.19324","2052.59","0.774","0.01548","35.8"
"1.24987","2076.44","0.813","0.01626","37.5"
"1.30655","2098.48","0.8476","0.016952","39.2"
"1.36319","2119.3","0.8828","0.017656","40.9"
"1.41987","2139.09","0.9195","0.01839","42.6"
"1.47655","2157.28","0.9567","0.019134","44.3"
"1.53323","2174.75","0.9921","0.019842","46"
"1.58991","2191.36","1.0274","0.020548","47.7"
"1.64664","2207.36","1.064","0.02128","49.4"
"1.70328","2222.24","1.1016","0.022032","51.1"
"1.75991","2236.55","1.1383","0.022766","52.8"
"1.81659","2250.35","1.1741","0.023482","54.5"
"1.87323","2263.77","1.2104","0.024208","56.2"
"1.92991","2276.66","1.2489","0.024978","57.9"
"1.98649","2289.14","1.2856","0.025712","59.6"
"2.04322","2301.43","1.3209","0.026418","61.3"
"2.0999","2313.51","1.3593","0.027186","63"
"2.15663","2325.04","1.3957","0.027914","64.7"
"2.21327","2336.44","1.4313","0.028626","66.4"
"2.26995","2347.47","1.4676","0.029352","68.1"
"2.32658","2358.3","1.506","0.03012","69.8"
"2.38331","2368.85","1.5418","0.030836","71.5"
"2.43994","2378.7","1.5777","0.031554","73.2"
"2.49658","2388.96","1.6162","0.032324","74.9"
"2.55321","2398.92","1.6538","0.033076","76.6"
"2.60989","2408.62","1.6896","0.033792","78.3"
"2.66658","2418.41","1.7252","0.034504","80"
"2.72321","2427.87","1.7646","0.035292","81.7"
"2.77994","2437.13","1.8004","0.036008","83.4"
"2.83657","2446.13","1.8355","0.03671","85.1"
"2.8933","2455.22","1.8712","0.037424","86.8"
"2.94993","2464.13","1.9099","0.038198","88.5"
"3.00662","2472.94","1.9468","0.038936","90.2"
"3.06325","2481.29","1.9823","0.039646","91.9"
"3.11988","2489.53","2.1832","0.043664","93.6"
"3.17657","2498.04","2.2216","0.044432","95.3"
"3.23325","2506.19","2.2608","0.045216","97"
"3.28988","2514.55","2.3018","0.046036","98.7"
"3.34656","2522.85","2.3423","0.046846","100.4"
"3.40324","2530.77","2.3835","0.04767","102.1"
"3.45997","2538.94","2.4235","0.04847","103.8"
"3.51661","2546.71","2.4602","0.049204","105.5"
"3.57329","2554.34","2.5035","0.05007","107.2"
"3.62992","2561.68","2.5407","0.050814","108.9"
"3.68665","2569.17","2.5835","0.05167","110.6"
"3.74324","2576.02","2.6254","0.052508","112.3"
"3.79992","2583.59","2.6673","0.053346","114"
"3.85651","2590.8","2.7083","0.054166","115.7"
"3.91323","2597.86","2.7489","0.054978","117.4"
"3.96987","2605.02","2.7898","0.055796","119.1"
"4.0266","2612.3","2.8275","0.05655","120.8"
"4.08323","2618.79","2.8675","0.05735","122.5"
"4.13996","2625.64","2.9125","0.05825","124.2"
"4.19659","2632.23","2.956","0.05912","125.9"
"4.25332","2638.86","2.9941","0.059882","127.6"
"4.30991","2645.03","3.0343","0.060686","129.3"
"4.36659","2651.41","3.0772","0.061544","131"
"4.42322","2657.52","3.1134","0.062268","132.7"
"4.47991","2663.83","3.1528","0.063056","134.4"
"4.53654","2669.57","3.193","0.06386","136.1"
"4.59322","2675.87","3.2329","0.064658","137.8"
"4.6499","2681.87","3.2732","0.065464","139.5"
"4.70658","2687.68","3.3153","0.066306","141.2"
"4.76331","2693.06","3.3518","0.067036","142.9"
"4.81995","2698.92","3.3962","0.067924","144.6"
"4.87658","2704.39","3.4295","0.06859","146.3"
"4.93326","2709.9","3.4713","0.069426","148"
"4.9899","2715.36","3.509","0.07018","149.7"
"5.04658","2720.85","3.5501","0.071002","151.4"
"5.10317","2725.69","3.5872","0.071744","153.1"
"5.15985","2731.01","3.6272","0.072544","154.8"
"5.21653","2735.98","3.6644","0.073288","156.5"
"5.27326","2741.41","3.7035","0.07407","158.2"
"5.32989","2746.26","3.7425","0.07485","159.9"
"5.38657","2751.2","3.7826","0.075652","161.6"
"5.44325","2755.54","3.8218","0.076436","163.3"
"5.49993","2760.09","3.8584","0.077168","165"
"5.55662","2764.8","3.899","0.07798","166.7"
"5.61325","2769.33","3.9352","0.078704","168.4"
"5.66988","2774","3.97","0.0794","170.1"
"5.72652","2778.06","4.0147","0.080294","171.8"
"5.78325","2782.57","4.0509","0.081018","173.5"
"5.83988","2786.77","4.0894","0.081788","175.2"
"5.89656","2791.22","4.126","0.08252","176.9"
"5.9532","2795.12","4.1673","0.083346","178.6"
"6.00997","2799.72","4.2035","0.08407","180.3"
"6.06661","2803.64","4.2447","0.084894","182"
"6.12329","2807.59","4.2852","0.085704","183.7"
"6.17992","2811.4","4.3207","0.086414","185.4"
"6.2366","2815.14","4.36","0.0872","187.1"
"6.29324","2818.79","4.4012","0.088024","188.8"
"6.34992","2822.58","4.4364","0.088728","190.5"
"6.40655","2826.11","4.4739","0.089478","192.2"
"6.46319","2829.63","4.515","0.0903","193.9"
"6.51992","2833.32","4.5555","0.09111","195.6"
"6.57655","2836.95","4.59","0.0918","197.3"
"6.63328","2840.4","4.627","0.09254","199"
"6.68991","2843.98","4.6701","0.093402","200.7"
"6.74659","2847.09","4.7084","0.094168","202.4"
"6.80327","2850.26","4.7439","0.094878","204.1"
"6.85995","2852.99","4.7911","0.095822","205.8"
"6.91654","2856.05","4.8298","0.096596","207.5"
"6.97322","2859.25","4.8681","0.097362","209.2"
"7.02986","2861.26","4.909","0.09818","210.9"
"7.08654","2864.11","4.9446","0.098892","212.6"
"7.14317","2867.18","4.9862","0.099724","214.3"
"7.1999","2870.28","5.0289","0.100578","216"
"7.25658","2873.14","5.0675","0.10135","217.7"
"7.31326","2875.85","5.1097","0.102194","219.4"
"7.36995","2878.81","5.146","0.10292","221.1"
"7.42663","2881.18","5.1913","0.103826","222.8"
"7.48321","2883.18","5.2342","0.104684","224.5"
"7.53994","2885.91","5.2783","0.105566","226.2"
"7.59653","2887.71","5.32","0.1064","227.9"
"7.65326","2890.71","5.3627","0.107254","229.6"
"7.70985","2892.94","5.413","0.10826","231.3"
"7.76657","2895.7","5.4509","0.109018","233"
"7.82321","2897.81","5.4949","0.109898","234.7"
"7.87998","2900.77","5.54","0.1108","236.4"
"7.93657","2902.86","5.5837","0.111674","238.1"
"7.9933","2904.84","5.6267","0.112534","239.8"
"8.04993","2907.04","5.6642","0.113284","241.5"
"8.10666","2909.48","5.7098","0.114196","243.2"
"8.16325","2911.41","5.7581","0.115162","244.9"
"8.21993","2913.62","5.8009","0.116018","246.6"
"8.27656","2915.57","5.8421","0.116842","248.3"
"8.33325","2917.63","5.8856","0.117712","250"
"8.38988","2919.83","5.9279","0.118558","251.7"
"8.44656","2922","5.965","0.1193","253.4"
"8.50324","2923.18","6.0095","0.120078","255.1"
"8.55992","2925.59","6.0491","0.120982","256.8"
"8.6166","2927.6","6.0867","0.121734","258.5"
"8.67329","2929.75","6.1275","0.12255","260.2"
"8.72992","2931.46","6.1692","0.123384","261.9"
"8.7866","2933.34","6.2071","0.124142","263.6"
"8.84324","2935.22","6.2522","0.125044","265.3"
"8.89992","2937.15","6.2893","0.125786","267"
"8.95655","2938.21","6.3316","0.126632","268.7"
"9.01323","2940.08","6.3736","0.127472","270.4"
"9.06987","2942.21","6.4064","0.128128","272.1"
"9.1266","2944.03","6.4456","0.128912","273.8"
"9.18328","2945.76","6.489","0.12978","275.5"
"9.23996","2947.57","6.5288","0.130576","277.2"
"9.29659","2949.28","6.5687","0.131374","278.9"
"9.35327","2950.66","6.6067","0.132134","280.6"
"9.40995","2952.34","6.6495","0.13299","282.3"
"9.46659","2953.82","6.6856","0.133712","284"
"9.52322","2954.3","6.7198","0.134396","285.7"
"9.57986","2955.95","6.7535","0.13507","287.4"
"9.63659","2957.47","6.7995","0.13599","289.1"
"9.69322","2958.68","6.8252","0.136504","290.8"
"9.7499","2960.36","6.8697","0.137394","292.5"
"9.80658","2961.38","6.9009","0.138018","294.2"
"9.86326","2963.27","6.9364","0.138728","295.9"
"9.91995","2964.58","6.9746","0.139492","297.6"
"9.97667","2966.16","7.0132","0.140264","299.3"
"10.0333","2967.28","7.0429","0.140858","301"
"10.0899","2968.54","7.0747","0.141494","302.7"
"10.1466","2969.55","7.1132","0.142264","304.4"
"10.2032","2970.77","7.152","0.14304","306.1"
"10.2599","2972.03","7.1877","0.143754","307.8"
"10.3165","2970.97","7.2229","0.144458","309.5"
"10.3732","2972.25","7.2598","0.145196","311.2"
"10.4299","2971.67","7.2914","0.145828","312.9"
"10.4866","2973.27","7.3209","0.146418","314.6"
"10.5433","2973.99","7.3548","0.147096","316.3"
"10.5999","2974.93","7.3828","0.147656","318"
"10.6566","2975.55","7.4147","0.148294","319.7"
"10.7132","2976.46","7.4441","0.148882","321.4"
"10.7699","2977.44","7.4808","0.149616","323.1"
"10.8265","2977.8","7.5131","0.150262","324.8"
"10.8832","2978.07","7.5427","0.150854","326.5"
"10.9399","2974.02","7.5759","0.151518","328.2"
"10.9966","2970.7","7.6027","0.151986","329.9"
"11.0532","2971.41","7.6283","0.152566","331.6"
"11.1099","2965.91","7.6552","0.153104","333.3"
"11.1666","2965.03","7.6773","0.153546","335"
"11.2233","2959.09","7.6854","0.153708","336.7"
"11.28","2952.54","7.7077","0.154154","338.4"
"11.3366","2950.08","7.7331","0.154662","340.1"
"11.3932","2938.64","7.7399","0.154798","341.8"
"11.4499","2935.77","7.759","0.15518","343.5"
"11.5066","2931.67","7.7635","0.15527","345.2"
"11.5632","2914.78","7.7735","0.15547","346.9"
"11.6199","2892.84","7.7795","0.15559","348.6"
"11.6765","2881.91","7.7854","0.155708","350.3"
"11.7204","-35.5681","7.7786","0.155572","351.599"