Folder: MFRPPO/experimental_data/tensile_specimen_test_data/tensile_test_data/20250312/original_data/SSS 2 03-12-25 16 18 12 下午

Note: README.md
# MFRPPO
Enhanced Mechanical Properties of 3D Printed Composites via Continuous Metal Fiber Reinforcement and Process Parameter Optimization

File: 数采：横梁, … - (实时值).csv
"文件路径: C:\Users\Lenovo\Desktop\Wayne\20250312\原始数据\SSS 2 03-12-25 16 18 12 下午\数采：横梁, … - (实时值).csv   "
"试验: 拉伸试验（UNIVER）      视频引伸计采集变形-W 1"
"试验运行: SSS 2"
"日期: 2025/3/12 11:48:25"
""
""
"横梁 ","力 ","视频引伸计变形 ","应变 ","时间 "
"mm","N","mm","mm/mm","sec"
"0.00270132","-1.58576","-0.0013","-2.6e-05","0.1"
"0.163197","25.172","0.0585","0.00117","4.9"
"0.323227","52.1333","0.1651","0.003302","9.7"
"0.48321","78.3834","0.2726","0.005452","14.5"
"0.64324","104.106","0.3794","0.007588","19.3"
"0.80327","129.979","0.4893","0.009786","24.1"
"0.963253","154.781","0.5981","0.011962","28.9"
"1.12324","179.943","0.7071","0.014142","33.7"
"1.28322","204.324","0.815","0.0163","38.5"
"1.44325","228.124","0.9255","0.01851","43.3"
"1.60323","251.867","1.0344","0.020688","48.1"
"1.76326","274.746","1.144","0.02288","52.9"
"1.92325","297.469","1.2522","0.025044","57.7"
"2.08323","320.105","1.3595","0.02719","62.5"
"2.24326","341.571","1.4685","0.02937","67.3"
"2.4032","363.185","1.576","0.03152","72.1"
"2.56323","383.99","1.6861","0.033722","76.9"
"2.72321","404.476","1.7931","0.035862","81.7"
"2.88324","424.506","1.9042","0.038084","86.5"
"3.04327","443.859","2.2362","0.044724","91.3"
"3.20316","462.937","2.3556","0.047112","96.1"
"3.36319","481.269","2.4821","0.049642","100.9"
"3.52317","498.905","2.6043","0.052086","105.7"
"3.68325","515.875","2.7278","0.054556","110.5"
"3.84328","532.735","2.8538","0.057076","115.3"
"4.00322","548.558","2.9789","0.059578","120.1"
"4.1632","564.039","3.108","0.06216","124.9"
"4.32318","578.864","3.2393","0.064786","129.7"
"4.48317","592.993","3.3658","0.067316","134.5"
"4.64324","606.686","3.4955","0.06991","139.3"
"4.80327","619.757","3.6278","0.072556","144.1"
"4.96326","632.293","3.762","0.07524","148.9"
"5.12319","644.122","3.8926","0.077852","153.7"
"5.28318","655.604","4.0068","0.080136","158.5"
"5.44321","666.388","4.1235","0.08247","163.3"
"5.60324","676.608","4.2339","0.084678","168.1"
"5.76331","686.574","4.343","0.08686","172.9"
"5.92325","695.944","4.4548","0.089096","177.7"
"6.08323","704.694","4.5676","0.091352","182.5"
"6.24322","713.016","4.6832","0.093664","187.3"
"6.4032","721.099","4.7895","0.09579","192.1"
"6.56323","728.491","4.9063","0.098126","196.9"
"6.72326","735.488","5.0213","0.100426","201.7"
"6.88324","742.019","5.1363","0.102726","206.5"
"7.04323","748.137","5.2483","0.104966","211.3"
"7.20326","753.723","5.3585","0.10717","216.1"
"7.36319","759.491","5.4711","0.109422","220.9"
"7.52318","764.384","5.5815","0.11163","225.7"
"7.68325","769.29","5.6915","0.11383","230.5"
"7.84324","774.083","5.8031","0.116062","235.3"
"8.00327","778.114","5.9128","0.118256","240.1"
"8.1632","782.189","6.015","0.1203","244.9"
"8.32319","785.692","6.1238","0.122476","249.7"
"8.48317","789.364","6.2314","0.124628","254.5"
"8.64325","792.486","6.3425","0.12685","259.3"
"8.80328","795.502","6.4396","0.128792","264.1"
"8.96326","798.278","6.5361","0.130722","268.9"
"9.12324","800.65","6.6505","0.1329","273.7"
"9.28318","803.076","6.7452","0.134904","278.5"
"9.44316","805.156","6.8385","0.13677","283.3"
"9.60324","806.84","6.9352","0.138704","288.1"
"9.76327","808.726","7.0253","0.140506","292.9"
"9.92325","810.212","7.1266","0.142532","297.7"
"10.0832","811.145","7.22","0.1444","302.5"
"10.2432","812.367","7.3024","0.146048","307.3"
"10.4032","813.508","7.4154","0.148308","312.1"
"10.5633","814.411","7.5434","0.150868","316.9"
"10.7233","814.871","7.6742","0.153484","321.7"
"10.8832","815.193","7.8014","0.156028","326.5"
"11.0432","815.399","7.9313","0.158626","331.3"
"11.2032","815.65","8.0626","0.161252","336.1"
"11.3632","815.693","8.1968","0.163936","340.9"
"11.5232","815.229","8.3296","0.166592","345.7"
"11.6833","815.283","8.4681","0.169362","350.5"
"11.8432","814.5","8.605","0.1721","355.3"
"12.0033","814.034","8.7447","0.174894","360.1"
"12.1633","813.306","8.8923","0.177846","364.9"
"12.3232","812.339","9.0317","0.180634","369.7"
"12.4832","811.238","9.1764","0.183528","374.5"
"12.6432","809.838","9.32","0.1864","379.3"
"12.8032","808.315","9.4707","0.189414","384.1"
"12.9633","806.597","9.6178","0.192356","388.9"
"13.1232","804.834","9.7691","0.195382","393.7"
"13.2832","802.736","9.928","0.19856","398.5"
"13.4432","800.25","10.0821","0.201642","403.3"
"13.6032","797.581","10.2435","0.20487","408.1"
"13.7633","794.362","10.4033","0.208066","412.9"
"13.9233","790.58","10.5704","0.211408","417.7"
"14.0832","785.787","10.7338","0.214676","422.5"
"14.2432","779.317","10.901","0.217992","427.3"
"14.4032","770.399","11.0608","0.221216","432.1"
"14.5632","757.434","11.1912","0.223824","436.9"
"14.7233","737.974","11.2677","0.225354","441.7"
"14.8832","714.415","11.2854","0.225708","446.5"
"15.0432","697.856","11.2941","0.225882","451.3"
"15.2032","685.326","11.2964","0.225928","456.1"
"15.3632","674.549","11.2947","0.225894","460.9"
"15.5233","665.81","11.2974","0.225948","465.7"
"15.6833","659.21","11.3047","0.226094","470.5"
"15.8432","654.668","11.3271","0.226542","475.3"
"16.0032","651.857","11.358","0.22716","480.1"
"16.1632","649.966","11.3796","0.227592","484.9"
"16.3232","648.474","11.4084","0.228168","489.7"
"16.4832","647.34","11.4439","0.228878","494.5"
"16.6433","646.566","11.4817","0.229634","499.3"
"16.8032","646.284","11.5225","0.23045","504.1"
"16.9632","645.267","11.5672","0.231344","508.9"
"17.1232","644.795","11.6159","0.232318","513.7"
"17.2832","644.071","11.666","0.23332","518.5"
"17.4432","643.91","11.7155","0.23431","523.3"
"17.6032","644.056","11.7726","0.235452","528.1"
"17.7632","644.206","11.8295","0.23659","532.9"
"17.9233","645.178","11.8963","0.237926","537.7"
"18.0832","646.003","11.9579","0.239158","542.5"
"18.2432","647.291","12.0301","0.240602","547.3"
"18.4032","648.215","12.1017","0.242034","552.1"
"18.5632","649.21","12.1798","0.243596","556.9"
"18.7233","649.914","12.2588","0.245176","561.7"
"18.8833","650.617","12.3399","0.246798","566.5"
"19.0432","651.185","12.4267","0.248534","571.3"
"19.2032","651.626","12.514","0.25028","576.1"
"19.3632","651.822","12.6018","0.252036","580.9"
"19.5232","651.915","12.6933","0.253866","585.7"
"19.6833","652.526","12.7874","0.255748","590.5"
"19.8432","652.796","12.8804","0.257608","595.3"
"20.0032","653.251","12.9729","0.259458","600.1"
"20.1632","653.745","13.0686","0.261372","604.9"
"20.3232","654.26","13.1648","0.263296","609.7"
"20.4833","655.047","13.2591","0.265182","614.5"
"20.6433","655.23","13.3575","0.26715","619.3"
"20.8032","655.489","13.4523","0.269046","624.1"
"20.9632","655.874","13.5444","0.270888","628.9"
"21.1232","655.853","13.6436","0.272872","633.7"
"21.2832","655.529","13.7397","0.274794","638.5"
"21.4432","654.846","13.84","0.2768","643.3"
"21.6032","654.932","13.9392","0.278784","648.1"
"21.7633","653.733","14.0466","0.280932","652.9"
"21.9232","652.575","14.1575","0.28315","657.7"
"22.0832","651.777","14.2736","0.285472","662.5"
"22.2432","650.686","14.3936","0.287872","667.3"
"22.4032","649.913","14.5188","0.290376","672.1"
"22.5632","648.931","14.6523","0.293046","676.9"
"22.7232","647.955","14.7992","0.295984","681.7"
"22.8833","647.034","14.9627","0.299254","686.5"
"23.0432","645.761","15.1444","0.302888","691.3"
"23.2032","645.071","15.3376","0.306752","696.1"
"23.3632","644.437","15.5359","0.310718","700.9"
"23.5232","643.864","15.7484","0.314968","705.7"
"23.6833","643.337","15.9668","0.319336","710.5"
"23.8432","643.347","16.195","0.3239","715.3"
"24.0032","642.737","16.4272","0.328544","720.1"
"24.1632","642.126","16.6662","0.333324","724.9"
"24.3231","642.125","16.9087","0.338174","729.7"
"24.4833","641.95","17.1555","0.34311","734.5"
"24.6433","642.143","17.3964","0.347928","739.3"
"24.8032","642.001","17.6469","0.352938","744.1"
"24.9632","642.184","17.8907","0.357814","748.9"
"25.1232","642.148","18.1455","0.36291","753.7"
"25.2832","641.73","18.4047","0.368094","758.5"
"25.4433","641.213","18.6643","0.373286","763.3"
"25.6033","640.376","18.9359","0.378718","768.1"
"25.7632","639.575","19.2142","0.384284","772.9"
"25.9232","638.916","19.4889","0.389778","777.7"
"26.0832","638.424","19.7641","0.395282","782.5"
"26.2432","638.274","20.0421","0.400842","787.3"
"26.4032","638.386","20.3144","0.406288","792.1"
"26.5632","638.727","20.5858","0.411716","796.9"
"26.7232","639.516","20.8596","0.417192","801.7"
"26.8833","640.59","21.1323","0.422646","806.5"
"27.0432","641.837","21.3983","0.427966","811.3"
"27.2032","643.151","21.6653","0.433306","816.1"
"27.3632","644.565","21.9295","0.43859","820.9"
"27.5232","645.708","22.1982","0.443964","825.7"
"27.6833","646.913","22.4672","0.449344","830.5"
"27.8432","648.197","22.7413","0.454826","835.3"
"28.0032","648.957","23.0086","0.460172","840.1"
"28.1632","650.154","23.2804","0.465608","844.9"
"28.3232","650.965","23.5541","0.471082","849.7"
"28.4832","651.937","23.8313","0.476626","854.5"
"28.6433","652.795","24.1038","0.482076","859.3"
"28.8032","653.426","24.3777","0.487554","864.1"
"28.9632","653.909","24.6498","0.492996","868.9"
"29.1232","654.129","24.9245","0.49849","873.7"
"29.2832","654.62","25.2007","0.504014","878.5"
"29.4432","655.181","25.4727","0.509454","883.3"
"29.6033","655.833","25.7518","0.515036","888.1"
"29.7632","656.265","26.0242","0.520484","892.9"
"29.9232","656.955","26.2921","0.525842","897.7"
"30.0832","657.622","26.5559","0.531118","902.5"
"30.2432","658.916","26.8206","0.536412","907.3"
"30.4033","660.124","27.0782","0.541564","912.1"
"30.5633","661.341","27.3365","0.54673","916.9"
"30.7233","662.74","27.5965","0.55193","921.7"
"30.8832","663.517","27.8561","0.557122","926.5"
"31.0432","664.832","28.12","0.5624","931.3"
"31.2032","665.863","28.3734","0.567468","936.1"
"31.3632","666.914","28.6302","0.572604","940.9"
"31.5233","667.894","28.8812","0.577624","945.7"
"31.6833","668.948","29.1308","0.582616","950.5"
"31.8433","670.142","29.3805","0.58761","955.3"
"32.0032","671.15","29.6243","0.592486","960.1"
"32.1632","672.076","29.8769","0.597538","964.9"
"32.3232","672.796","30.1231","0.602462","969.7"
"32.4832","673.538","30.368","0.60736","974.5"
"32.6432","674.037","30.6108","0.612216","979.3"
"32.8032","674.442","30.8523","0.617046","984.1"
"32.9632","674.869","31.0936","0.621872","988.9"
"33.1232","675.371","31.3317","0.626634","993.7"
"33.2765","675.803","31.5637","0.631274","998.3"