Folder: MFRPPO/experimental_data/tensile_specimen_test_data/tensile_test_data/20250312/original_data/SSS 13 03-12-25 16 18 12 下午

Note: README.md
# MFRPPO
Enhanced Mechanical Properties of 3D Printed Composites via Continuous Metal Fiber Reinforcement and Process Parameter Optimization

File: 数采：横梁, … - (实时值).csv
"文件路径: C:\Users\Lenovo\Desktop\Wayne\20250312\原始数据\SSS 13 03-12-25 16 18 12 下午\数采：横梁, … - (实时值).csv   "
"试验: 拉伸试验（UNIVER）      视频引伸计采集变形-W 1"
"试验运行: SSS 13"
"日期: 2025/3/12 15:07:09"
""
""
"横梁 ","力 ","视频引伸计变形 ","应变 ","时间 "
"mm","N","mm","mm/mm","sec"
"0.00270132","15.2087","-0.0001","-2e-06","0.1"
"0.0999488","564.885","0.1446","0.002892","3"
"0.196637","1096.37","0.2273","0.004546","5.9"
"0.293233","1568.75","0.2922","0.005844","8.8"
"0.389922","1977.24","0.351","0.00702","11.7"
"0.48661","2275.62","0.4016","0.008032","14.6"
"0.583345","2498.7","0.4477","0.008954","17.5"
"0.679941","2674.01","0.4855","0.00971","20.4"
"0.776583","2823.79","0.5296","0.010592","23.3"
"0.873225","2954.29","0.5781","0.011562","26.2"
"0.96996","3067.83","0.6162","0.012324","29.1"
"1.0666","3165.26","0.6667","0.013334","32"
"1.16329","3249.12","0.7142","0.014284","34.9"
"1.25993","3321.37","0.7701","0.015402","37.8"
"1.35657","3384.7","0.8231","0.016462","40.7"
"1.45331","3440.61","0.8728","0.017456","43.6"
"1.54995","3489.88","0.9294","0.018588","46.5"
"1.64664","3534.99","0.9857","0.019714","49.4"
"1.74319","3575.49","1.0465","0.02093","52.3"
"1.83992","3613.38","1.1051","0.022102","55.2"
"1.93661","3647.78","1.164","0.02328","58.1"
"2.0333","3680.27","1.221","0.02442","61"
"2.12994","3710.38","1.283","0.02566","63.9"
"2.22654","3738.89","1.3424","0.026848","66.8"
"2.32327","3766.42","1.4026","0.028052","69.7"
"2.42001","3792.8","1.465","0.0293","72.6"
"2.51665","3818.18","1.5249","0.030498","75.5"
"2.61329","3842.18","1.5855","0.03171","78.4"
"2.70994","3865.1","1.6476","0.032952","81.3"
"2.80658","3887.57","1.7084","0.034168","84.2"
"2.90331","3909.37","1.7702","0.035404","87.1"
"2.99996","3930.69","1.8301","0.036602","90"
"3.09664","3951.73","1.8926","0.037852","92.9"
"3.19324","3971.9","1.9549","0.039098","95.8"
"3.28993","3991.26","2.2697","0.045394","98.7"
"3.38662","4010.88","2.3355","0.04671","101.6"
"3.48331","4029.84","2.4041","0.04799","104.5"
"3.5799","4048.22","2.4691","0.049382","107.4"
"3.67659","4066.35","2.5319","0.050638","110.3"
"3.77323","4084.44","2.5978","0.051956","113.2"
"3.86997","4102.16","2.6623","0.053246","116.1"
"3.96661","4119.22","2.7249","0.054498","119"
"4.06325","4135.94","2.7908","0.055816","121.9"
"4.15989","4151.77","2.8546","0.057092","124.8"
"4.25658","4168.03","2.9169","0.058338","127.7"
"4.35332","4184.4","2.9812","0.059624","130.6"
"4.44996","4199.75","3.0431","0.060862","133.5"
"4.54665","4215.04","3.1072","0.062144","136.4"
"4.64324","4229.47","3.173","0.06346","139.3"
"4.73998","4244.01","3.2352","0.064704","142.2"
"4.83662","4258.48","3.2971","0.065942","145.1"
"4.93331","4272.83","3.3638","0.067276","148"
"5.02995","4286.61","3.4273","0.068546","150.9"
"5.12659","4299.8","3.4901","0.069802","153.8"
"5.22328","4313.15","3.5568","0.071136","156.7"
"5.31997","4326.01","3.6208","0.072416","159.6"
"5.41666","4338.36","3.6847","0.073694","162.5"
"5.5133","4350.43","3.7517","0.075034","165.4"
"5.6099","4362.24","3.8152","0.076304","168.3"
"5.70658","4373.96","3.8817","0.077634","171.2"
"5.80332","4385.64","3.9517","0.079034","174.1"
"5.89992","4396.33","4.0194","0.080388","177"
"5.9966","4407.3","4.0878","0.081756","179.9"
"6.09325","4417.36","4.158","0.08316","182.8"
"6.18993","4427.81","4.2272","0.084544","185.7"
"6.28662","4438.75","4.2918","0.085836","188.6"
"6.38327","4448.3","4.3617","0.087234","191.5"
"6.47991","4458.23","4.4285","0.08857","194.4"
"6.57655","4467","4.498","0.08996","197.3"
"6.67328","4476.52","4.5659","0.091318","200.2"
"6.76997","4486.15","4.637","0.09274","203.1"
"6.86662","4494.93","4.7098","0.094196","206"
"6.96326","4503.61","4.7735","0.09547","208.9"
"7.0599","4512.24","4.8396","0.096792","211.8"
"7.15663","4520.52","4.909","0.09818","214.7"
"7.25337","4528.75","4.9783","0.099566","217.6"
"7.34997","4536.69","5.0458","0.100916","220.5"
"7.44665","4544.49","5.1108","0.102216","223.4"
"7.54325","4551.49","5.1782","0.103564","226.3"
"7.63994","4559.53","5.2436","0.104872","229.2"
"7.73663","4567.16","5.3111","0.106222","232.1"
"7.83332","4574.26","5.3782","0.107564","235"
"7.92996","4581.4","5.4504","0.109008","237.9"
"8.02655","4588.21","5.52","0.1104","240.8"
"8.12324","4595.11","5.5945","0.11189","243.7"
"8.21998","4602.11","5.664","0.11328","246.6"
"8.31657","4608.92","5.7341","0.114682","249.5"
"8.41326","4614.84","5.8074","0.116148","252.4"
"8.5099","4621.23","5.8751","0.117502","255.3"
"8.60664","4627.81","5.9468","0.118936","258.2"
"8.70333","4633.92","6.0204","0.120408","261.1"
"8.79992","4639.68","6.0916","0.121802","264"
"8.89661","4645.81","6.1652","0.123304","266.9"
"8.99321","4651.16","6.2392","0.124784","269.8"
"9.08999","4657.78","6.3076","0.126152","272.7"
"9.18663","4663.38","6.3787","0.127574","275.6"
"9.28327","4669.03","6.4533","0.129066","278.5"
"9.37991","4674.12","6.5256","0.130512","281.4"
"9.47656","4679.53","6.5966","0.131932","284.3"
"9.57329","4684.84","6.6708","0.133416","287.2"
"9.67003","4690.42","6.7416","0.134832","290.1"
"9.76667","4695.7","6.817","0.13634","293"
"9.86326","4700.25","6.8918","0.137836","295.9"
"9.95995","4705.39","6.9671","0.139342","298.8"
"10.0566","4709.74","7.0393","0.140786","301.7"
"10.1533","4714.84","7.1108","0.142216","304.6"
"10.2499","4719.22","7.183","0.14366","307.5"
"10.3466","4723.53","7.2567","0.145134","310.4"
"10.4432","4727.86","7.3333","0.146666","313.3"
"10.5399","4732.67","7.4029","0.148058","316.2"
"10.6366","4736.93","7.4772","0.149544","319.1"
"10.7333","4741.18","7.5513","0.151026","322"
"10.8299","4744.83","7.6225","0.15245","324.9"
"10.9266","4749.05","7.6948","0.153896","327.8"
"11.0233","4752.52","7.7647","0.155294","330.7"
"11.12","4756.76","7.8434","0.156868","333.6"
"11.2166","4760.48","7.9083","0.158166","336.5"
"11.3132","4762.98","7.9825","0.15965","339.4"
"11.4099","4767.29","8.0549","0.161098","342.3"
"11.5066","4771.23","8.1309","0.162618","345.2"
"11.6033","4775.63","8.2075","0.16415","348.1"
"11.6999","4778.97","8.2741","0.165482","351"
"11.7966","4782.76","8.3487","0.166974","353.9"
"11.8933","4786.12","8.4289","0.168578","356.8"
"11.99","4789.83","8.4986","0.169972","359.7"
"12.0866","4793.15","8.5781","0.171562","362.6"
"12.1833","4796.99","8.6511","0.173022","365.5"
"12.2799","4800.59","8.7308","0.174616","368.4"
"12.3766","4803.13","8.8027","0.176054","371.3"
"12.4733","4806.15","8.8713","0.177426","374.2"
"12.57","4809.52","8.9528","0.179056","377.1"
"12.6666","4812.2","9.0195","0.18039","380"
"12.7633","4815.62","9.088","0.18176","382.9"
"12.8599","4817.59","9.1645","0.18329","385.8"
"12.9566","4820.77","9.2266","0.184532","388.7"
"13.0533","4823.02","9.2992","0.185984","391.6"
"13.1499","4826.32","9.3651","0.187302","394.5"
"13.2466","4829.39","9.4383","0.188766","397.4"
"13.3432","4831.86","9.5094","0.190188","400.3"
"13.44","4835.4","9.5707","0.191414","403.2"
"13.5366","4838.14","9.6438","0.192876","406.1"
"13.6333","4841.23","9.7156","0.194312","409"
"13.7299","4843.72","9.7759","0.195518","411.9"
"13.8266","4846.64","9.8459","0.196918","414.8"
"13.9233","4849.42","9.9114","0.198228","417.7"
"14.02","4852.38","9.9804","0.199608","420.6"
"14.1166","4854.86","10.0513","0.201026","423.5"
"14.2133","4856.86","10.1231","0.202462","426.4"
"14.31","4859.8","10.187","0.20374","429.3"
"14.4067","4862.34","10.2626","0.205252","432.2"
"14.5033","4865.43","10.3313","0.206626","435.1"
"14.5999","4866.78","10.3954","0.207908","438"
"14.6966","4869.61","10.4692","0.209384","440.9"
"14.7933","4871.86","10.5461","0.210922","443.8"
"14.89","4874.82","10.6167","0.212334","446.7"
"14.9866","4877.46","10.6882","0.213764","449.6"
"15.0833","4879.29","10.7559","0.215118","452.5"
"15.1799","4881.78","10.8294","0.216588","455.4"
"15.2766","4883.75","10.899","0.21798","458.3"
"15.3733","4886.56","10.9716","0.219432","461.2"
"15.4699","4888.97","11.0411","0.220822","464.1"
"15.5666","4890.38","11.1079","0.222158","467"
"15.6632","4891.82","11.1764","0.223528","469.9"
"15.76","4894.1","11.2431","0.224862","472.8"
"15.8566","4894.58","11.3092","0.226184","475.7"
"15.9533","4897.08","11.3745","0.22749","478.6"
"16.0499","4898.83","11.4422","0.228844","481.5"
"16.1466","4901.37","11.5093","0.230186","484.4"
"16.2432","4902.47","11.5809","0.231618","487.3"
"16.34","4904.7","11.6467","0.232934","490.2"
"16.4366","4907.04","11.6979","0.233958","493.1"
"16.5333","4908.54","11.775","0.2355","496"
"16.6299","4908.6","11.8437","0.236874","498.9"
"16.7266","4910.51","11.8986","0.237972","501.8"
"16.8233","4913.14","11.9619","0.239238","504.7"
"16.92","4914.87","12.0226","0.240452","507.6"
"17.0166","4916.67","12.0914","0.241828","510.5"
"17.1133","4918.24","12.1492","0.242984","513.4"
"17.21","4920.19","12.2119","0.244238","516.3"
"17.3067","4920.66","12.2752","0.245504","519.2"
"17.4033","4923.24","12.3337","0.246674","522.1"
"17.4999","4924.52","12.3909","0.247818","525"
"17.5966","4926.14","12.4549","0.249098","527.9"
"17.6933","4927.97","12.5185","0.25037","530.8"
"17.79","4930.11","12.5858","0.251716","533.7"
"17.8866","4932.18","12.6446","0.252892","536.6"
"17.9832","4933.35","12.7009","0.254018","539.5"
"18.0799","4934.88","12.7617","0.255234","542.4"
"18.1766","4936.56","12.828","0.25656","545.3"
"18.2733","4938.67","12.8831","0.257662","548.2"
"18.37","4940.05","12.9446","0.258892","551.1"
"18.4666","4941.46","13.0063","0.260126","554"
"18.5632","4943.24","13.0687","0.261374","556.9"
"18.6599","4944.75","13.1238","0.262476","559.8"
"18.7566","4944.83","13.184","0.26368","562.7"
"18.8533","4946.82","13.2478","0.264956","565.6"
"18.9499","4948.44","13.3052","0.266104","568.5"
"19.0466","4949.88","13.3609","0.267218","571.4"
"19.1433","4951.56","13.4148","0.268296","574.3"
"19.24","4953.24","13.4689","0.269378","577.2"
"19.3366","4954.76","13.5223","0.270446","580.1"
"19.4333","4956.49","13.5664","0.271328","583"
"19.5299","4957.73","13.6116","0.272232","585.9"
"19.6266","4957.31","13.6644","0.273288","588.8"
"19.7233","4945.99","13.715","0.2743","591.7"
"19.82","4937.29","13.7644","0.275288","594.6"
"19.9166","4936.3","13.8102","0.276204","597.5"
"20.0133","4451.28","13.8351","0.276702","600.4"
"20.11","4276.22","13.8304","0.276608","603.3"
"20.2066","4149.09","13.8212","0.276424","606.2"
"20.2599","132.091","13.798","0.27596","607.786"