Folder: MFRPPO/experimental_data/tensile_specimen_test_data/tensile_test_data/20250312/original_data/SSS 8 03-12-25 16 18 12 下午

Note: README.md
# MFRPPO
Enhanced Mechanical Properties of 3D Printed Composites via Continuous Metal Fiber Reinforcement and Process Parameter Optimization

File: 数采：横梁, … - (实时值).csv
"文件路径: C:\Users\Lenovo\Desktop\Wayne\20250312\原始数据\SSS 8 03-12-25 16 18 12 下午\数采：横梁, … - (实时值).csv   "
"试验: 拉伸试验（UNIVER）      视频引伸计采集变形-W 1"
"试验运行: SSS 8"
"日期: 2025/3/12 13:22:00"
""
""
"横梁 ","力 ","视频引伸计变形 ","应变 ","时间 "
"mm","N","mm","mm/mm","sec"
"0.0025616","-83.275","0.001","2e-05","0.1"
"0.113223","214.962","0.284","0.00568","3.4"
"0.223231","614.55","0.4375","0.00875","6.7"
"0.333194","982.454","0.5443","0.010886","10"
"0.443203","1296.24","0.6467","0.012934","13.3"
"0.553258","1521.23","0.7463","0.014926","16.6"
"0.663174","1666.08","0.8422","0.016844","19.9"
"0.773183","1784.97","0.9371","0.018742","23.2"
"0.883238","1871.98","1.0447","0.020894","26.5"
"0.993247","1949.34","1.1301","0.022602","29.8"
"1.10316","2013.45","1.2176","0.024352","33.1"
"1.21327","2068.17","1.3042","0.026084","36.4"
"1.32327","2114.61","1.3853","0.027706","39.7"
"1.43319","2154.79","1.4707","0.029414","43"
"1.5432","2191.45","1.5521","0.031042","46.3"
"1.65325","2225.26","1.6374","0.032748","49.6"
"1.76317","2254.6","1.7179","0.034358","52.9"
"1.87318","2282.56","1.7982","0.035964","56.2"
"1.98323","2308.84","1.8851","0.037702","59.5"
"2.09324","2333.75","1.9688","0.039376","62.8"
"2.20325","2357.09","2.4207","0.048414","66.1"
"2.31321","2379.7","2.5005","0.05001","69.4"
"2.42327","2401.21","2.5836","0.051672","72.7"
"2.53319","2421.59","2.6654","0.053308","76"
"2.64319","2441.44","2.7492","0.054984","79.3"
"2.75325","2461.05","2.8308","0.056616","82.6"
"2.86321","2479.45","2.9125","0.05825","85.9"
"2.97318","2497.92","2.996","0.05992","89.2"
"3.08328","2515.68","3.0822","0.061644","92.5"
"3.19329","2533.13","3.1584","0.063168","95.8"
"3.3032","2549.41","3.2396","0.064792","99.1"
"3.41321","2566","3.3193","0.066386","102.4"
"3.52322","2580.18","3.4141","0.068282","105.7"
"3.63318","2596.18","3.5111","0.070222","109"
"3.74319","2611.35","3.6023","0.072046","112.3"
"3.85325","2626.16","3.7002","0.074004","115.6"
"3.96321","2640.48","3.8014","0.076028","118.9"
"4.07322","2653.62","3.8973","0.077946","122.2"
"4.18327","2608.36","3.9329","0.078658","125.5"
"4.29324","2665.22","4.0163","0.080326","128.8"
"4.40315","2680.07","4.1106","0.082212","132.1"
"4.51316","2692.36","4.2103","0.084206","135.4"
"4.62326","2704.72","4.3128","0.086256","138.7"
"4.73322","2716.15","4.4086","0.088172","142"
"4.84319","2727.21","4.5097","0.090194","145.3"
"4.95324","2738.1","4.6089","0.092178","148.6"
"5.06325","2748.49","4.709","0.09418","151.9"
"5.17317","2758.18","4.8043","0.096086","155.2"
"5.28322","2768.39","4.9033","0.098066","158.5"
"5.39323","2778.02","5.0061","0.100122","161.8"
"5.50315","2786.51","5.1055","0.10211","165.1"
"5.6132","2795.33","5.2031","0.104062","168.4"
"5.72326","2804","5.3011","0.106022","171.7"
"5.83317","2812.33","5.4036","0.108072","175"
"5.94318","2820.41","5.5093","0.110186","178.3"
"6.05329","2828.13","5.6085","0.11217","181.6"
"6.16325","2835.24","5.711","0.11422","184.9"
"6.27321","2841.47","5.817","0.11634","188.2"
"6.38322","2848.86","5.9173","0.118346","191.5"
"6.49323","2855.9","6.0212","0.120424","194.8"
"6.60319","2862.11","6.1224","0.122448","198.1"
"6.71325","2868.35","6.2301","0.124602","201.4"
"6.82325","2874.89","6.3346","0.126692","204.7"
"6.93326","2821.7","6.4035","0.12807","208"
"7.04318","2871.67","6.4857","0.129714","211.3"
"7.15323","2882.04","6.586","0.13172","214.6"
"7.26324","2888.39","6.6941","0.133882","217.9"
"7.37316","2894.32","6.7903","0.135806","221.2"
"7.48321","2899.75","6.9012","0.138024","224.5"
"7.59322","2905.08","6.9912","0.139824","227.8"
"7.70319","2909.86","7.1024","0.142048","231.1"
"7.81319","2914.98","7.2117","0.144234","234.4"
"7.9233","2919.87","7.321","0.14642","237.7"
"8.03317","2924.2","7.43","0.1486","241"
"8.14318","2928.37","7.5414","0.150828","244.3"
"8.25323","2932.81","7.6635","0.15327","247.6"
"8.36319","2937.08","7.7712","0.155424","250.9"
"8.4732","2941.11","7.8877","0.157754","254.2"
"8.58321","2945.07","7.9951","0.159902","257.5"
"8.69327","2948.97","8.1145","0.16229","260.8"
"8.80323","2952.72","8.2234","0.164468","264.1"
"8.91324","2956.43","8.3387","0.166774","267.4"
"9.02325","2959.91","8.4545","0.16909","270.7"
"9.13321","2963.41","8.5559","0.171118","274"
"9.24317","2966.3","8.6716","0.173432","277.3"
"9.35323","2969.98","8.7844","0.175688","280.6"
"9.46324","2973.34","8.8928","0.177856","283.9"
"9.57315","2975.91","9.0126","0.180252","287.2"
"9.68325","2979.33","9.1242","0.182484","290.5"
"9.79326","2982.49","9.2396","0.184792","293.8"
"9.90323","2985.21","9.3501","0.187002","297.1"
"10.0132","2987.9","9.4752","0.189504","300.4"
"10.1232","2990.94","9.5871","0.191742","303.7"
"10.2332","2993.05","9.701","0.19402","307"
"10.3432","2996.04","9.807","0.19614","310.3"
"10.4532","2998.58","9.9286","0.198572","313.6"
"10.5632","3001.46","10.0463","0.200926","316.9"
"10.6732","3003.34","10.1549","0.203098","320.2"
"10.7832","3006.13","10.2791","0.205582","323.5"
"10.8933","3008.27","10.393","0.20786","326.8"
"11.0032","3010.54","10.5101","0.210202","330.1"
"11.1132","3012.87","10.6271","0.212542","333.4"
"11.2232","3015.11","10.7404","0.214808","336.7"
"11.3332","3017.43","10.8488","0.216976","340"
"11.4432","3019.31","10.9727","0.219454","343.3"
"11.5532","3021.85","11.0777","0.221554","346.6"
"11.6633","3023.73","11.1844","0.223688","349.9"
"11.7732","3025.6","11.297","0.22594","353.2"
"11.8832","3027.57","11.4036","0.228072","356.5"
"11.9933","3029.67","11.5133","0.230266","359.8"
"12.1032","3031.4","11.6198","0.232396","363.1"
"12.2132","3033.46","11.7265","0.23453","366.4"
"12.3232","3035.26","11.8378","0.236756","369.7"
"12.4332","3037.22","11.9506","0.239012","373"
"12.5432","3038.88","12.054","0.24108","376.3"
"12.6532","3040.69","12.1728","0.243456","379.6"
"12.7632","3042.21","12.2816","0.245632","382.9"
"12.8732","3043.99","12.3881","0.247762","386.2"
"12.9832","3045.35","12.4942","0.249884","389.5"
"13.0932","3046.98","12.6005","0.25201","392.8"
"13.2032","3048.44","12.707","0.25414","396.1"
"13.3132","3049.65","12.8155","0.25631","399.4"
"13.4233","3051.39","12.9316","0.258632","402.7"
"13.5332","3053.03","13.0329","0.260658","406"
"13.6432","3054.08","13.1455","0.26291","409.3"
"13.7532","3055.33","13.2519","0.265038","412.6"
"13.8633","3056.78","13.3603","0.267206","415.9"
"13.9732","3057.83","13.4662","0.269324","419.2"
"14.0832","3058.88","13.575","0.2715","422.5"
"14.1932","3060.43","13.6787","0.273574","425.8"
"14.3032","3061.69","13.7818","0.275636","429.1"
"14.4132","3063.11","13.8879","0.277758","432.4"
"14.5233","3064.44","13.9926","0.279852","435.7"
"14.6332","3065.73","14.0967","0.281934","439"
"14.7432","3066.53","14.1962","0.283924","442.3"
"14.8532","3068.23","14.302","0.28604","445.6"
"14.9632","3069.28","14.4102","0.288204","448.9"
"15.0732","3070.58","14.5067","0.290134","452.2"
"15.1832","3071.33","14.6146","0.292292","455.5"
"15.2932","3072.52","14.7161","0.294322","458.8"
"15.4033","3073.94","14.8151","0.296302","462.1"
"15.5132","3074.69","14.9276","0.298552","465.4"
"15.6232","3075.97","15.0267","0.300534","468.7"
"15.7332","3076.9","15.1336","0.302672","472"
"15.8432","3077.66","15.2389","0.304778","475.3"
"15.9532","3078.81","15.3422","0.306668","478.6"
"16.0633","3080.1","15.4424","0.308848","481.9"
"16.1732","3080.64","15.5484","0.310968","485.2"
"16.2832","3081.62","15.6475","0.31295","488.5"
"16.3933","3082.92","15.7589","0.315178","491.8"
"16.5032","3083.7","15.8617","0.317234","495.1"
"16.6132","3084.48","15.9682","0.319364","498.4"
"16.7232","3085.6","16.0742","0.321484","501.7"
"16.8332","3086.49","16.1871","0.323742","505"
"16.9432","3087.2","16.2923","0.325846","508.3"
"17.0532","3088.48","16.4022","0.328044","511.6"
"17.1633","3089.35","16.515","0.3303","514.9"
"17.2733","3090.14","16.6171","0.332342","518.2"
"17.3832","3090.66","16.7297","0.334594","521.5"
"17.4933","3091.61","16.838","0.33676","524.8"
"17.6032","3092.64","16.9426","0.338852","528.1"
"17.7132","3093.13","17.0522","0.341044","531.4"
"17.8232","3094.09","17.1631","0.343262","534.7"
"17.9333","3095.05","17.27","0.3454","538"
"18.0432","3095.78","17.3719","0.347438","541.3"
"18.1532","3096.28","17.4733","0.349466","544.6"
"18.2633","3097.32","17.5799","0.351598","547.9"
"18.3732","3097.85","17.6853","0.353706","551.2"
"18.4832","3098.72","17.7884","0.355768","554.5"
"18.5932","3099.83","17.8947","0.357894","557.8"
"18.7032","3100.37","18.0017","0.360034","561.1"
"18.8132","3100.82","18.1009","0.362018","564.4"
"18.9233","3102.12","18.2049","0.364098","567.7"
"19.0332","3102.75","18.3177","0.366354","571"
"19.1432","3103.85","18.4153","0.368306","574.3"
"19.2532","3104.35","18.5215","0.37043","577.6"
"19.3632","3105.05","18.6301","0.372602","580.9"
"19.4732","3105.82","18.7391","0.374782","584.2"
"19.5832","3106.57","18.847","0.37694","587.5"
"19.6932","3107.63","18.9604","0.379208","590.8"
"19.8032","3108.09","19.0672","0.381344","594.1"
"19.9132","3108.59","19.1845","0.38369","597.4"
"20.0233","3109.46","19.2911","0.385822","600.7"
"20.1333","3110.42","19.406","0.38812","604"
"20.2432","3110.77","19.5232","0.390464","607.3"
"20.3532","3111.32","19.6298","0.392596","610.6"
"20.4632","3111.83","19.7499","0.394998","613.9"
"20.5732","3111.78","19.8663","0.397326","617.2"
"20.6832","3112.62","19.9725","0.39945","620.5"
"20.7932","3113.24","20.0903","0.401806","623.8"
"20.9032","3113.76","20.2111","0.404222","627.1"
"21.0132","3113.95","20.3219","0.406438","630.4"
"21.1233","3112.7","20.4295","0.40859","633.7"
"21.2332","3112.08","20.5394","0.410788","637"
"21.3432","3112.72","20.648","0.41296","640.3"
"21.4532","3112.53","20.7533","0.415066","643.6"
"21.5633","3109.55","20.8503","0.417006","646.9"
"21.6732","3107.4","20.9388","0.418776","650.2"
"21.7832","3106.16","21.027","0.42054","653.5"
"21.8933","3103.48","21.1111","0.422222","656.8"
"22.0032","3093.42","21.1815","0.42363","660.1"
"22.1132","3085.25","21.245","0.4249","663.4"
"22.2232","3073.64","21.3051","0.426102","666.7"
"22.3333","3039.02","21.3611","0.427222","670"
"22.4432","2818.5","21.4267","0.428534","673.3"
"22.5532","2602.43","21.4682","0.429364","676.6"
"22.5784","332.121","21.4636","0.429272","677.348"