Folder: MFRPPO/experimental_data/tensile_specimen_test_data/tensile_test_data/20250312/original_data/SSS 11 03-12-25 16 18 12 下午

Note: README.md
# MFRPPO
Enhanced Mechanical Properties of 3D Printed Composites via Continuous Metal Fiber Reinforcement and Process Parameter Optimization

File: 数采：横梁, … - (实时值).csv
"文件路径: C:\Users\Lenovo\Desktop\Wayne\20250312\原始数据\SSS 11 03-12-25 16 18 12 下午\数采：横梁, … - (实时值).csv   "
"试验: 拉伸试验（UNIVER）      视频引伸计采集变形-W 1"
"试验运行: SSS 11"
"日期: 2025/3/12 14:18:00"
""
""
"横梁 ","力 ","视频引伸计变形 ","应变 ","时间 "
"mm","N","mm","mm/mm","sec"
"0.00265475","-60.5242","0.0006","1.2e-05","0.1"
"0.216571","1042.91","0.1812","0.003624","6.5"
"0.429929","1847.84","0.3242","0.006484","12.9"
"0.643194","2306.89","0.4626","0.009252","19.3"
"0.856644","2568.58","0.5955","0.01191","25.7"
"1.06986","2732.19","0.7343","0.014686","32.1"
"1.28331","2839.73","0.8751","0.017502","38.5"
"1.49658","2930.59","1.018","0.02036","44.9"
"1.70994","3004.69","1.1597","0.023194","51.3"
"1.92325","3068.57","1.3063","0.026126","57.7"
"2.1366","3125.76","1.4543","0.029086","64.1"
"2.34992","3177.14","1.6061","0.032122","70.5"
"2.56323","3224.77","1.7555","0.03511","76.9"
"2.77663","3262.8","1.8867","0.037734","83.3"
"2.98994","3306.3","2.4361","0.048722","89.7"
"3.2033","3346.09","2.6159","0.052318","96.1"
"3.41656","3384.04","2.7978","0.055956","102.5"
"3.62997","3420.99","2.9807","0.059614","108.9"
"3.84323","3449.11","3.1535","0.06307","115.3"
"4.05664","3483.83","3.3311","0.066622","121.7"
"4.2699","3515.01","3.5057","0.070114","128.1"
"4.48326","3545.06","3.6893","0.073786","134.5"
"4.69657","3573.97","3.8654","0.077308","140.9"
"4.90993","3599.77","4.0418","0.080836","147.3"
"5.12333","3626.61","4.2275","0.08455","153.7"
"5.3365","3650.51","4.4085","0.08817","160.1"
"5.54995","3673.9","4.5853","0.091706","166.5"
"5.76322","3695.61","4.757","0.09514","172.9"
"5.97662","3717.16","4.9391","0.098782","179.3"
"6.18993","3736.17","5.1137","0.102274","185.7"
"6.40325","3751.72","5.2588","0.105176","192.1"
"6.6166","3769.87","5.4622","0.109244","198.5"
"6.82991","3786.82","5.652","0.11304","204.9"
"7.04327","3802.9","5.8214","0.116428","211.3"
"7.25658","3818.29","5.9909","0.119818","217.7"
"7.46994","3832.92","6.1498","0.122996","224.1"
"7.68325","3846.58","6.3128","0.126256","230.5"
"7.89666","3860.28","6.4715","0.12943","236.9"
"8.10992","3872.2","6.6363","0.132726","243.3"
"8.32328","3884.65","6.7961","0.135922","249.7"
"8.53654","3896.26","6.9607","0.139214","256.1"
"8.74995","3908.02","7.1188","0.142376","262.5"
"8.96321","3918.69","7.2842","0.145684","268.9"
"9.17657","3929.78","7.451","0.14902","275.3"
"9.38993","3940.11","7.6033","0.152066","281.7"
"9.60324","3949.97","7.7697","0.155394","288.1"
"9.81664","3959.91","7.9233","0.158466","294.5"
"10.0299","3968.52","8.0872","0.161744","300.9"
"10.2433","3977.67","8.2504","0.165008","307.3"
"10.4566","3985.86","8.4041","0.168082","313.7"
"10.6699","3994.26","8.5647","0.171294","320.1"
"10.8832","4002.27","8.7299","0.174598","326.5"
"11.0966","4010.11","8.8858","0.177716","332.9"
"11.31","4017.92","9.0464","0.180928","339.3"
"11.5232","4025.15","9.2136","0.184272","345.7"
"11.7366","4032.54","9.3729","0.187458","352.1"
"11.9499","4039.02","9.5157","0.190314","358.5"
"12.1633","4045.7","9.6631","0.193262","364.9"
"12.3766","4052.03","9.8133","0.196266","371.3"
"12.5899","4058.47","9.9574","0.199148","377.7"
"12.8032","4064.2","10.1089","0.202178","384.1"
"13.0166","4070.06","10.2563","0.205126","390.5"
"13.2299","4075.6","10.4008","0.208016","396.9"
"13.4433","4080.9","10.5429","0.210858","403.3"
"13.6566","4086.06","10.6919","0.213838","409.7"
"13.8699","4091.31","10.833","0.21666","416.1"
"14.0833","4096.34","10.9767","0.219534","422.5"
"14.2965","4101.24","11.1262","0.222524","428.9"
"14.51","4106.63","11.2687","0.225374","435.3"
"14.7232","4111.09","11.4243","0.228486","441.7"
"14.9366","4115.93","11.5772","0.231544","448.1"
"15.1499","4120.75","11.7315","0.23463","454.5"
"15.3633","4125.28","11.8871","0.237742","460.9"
"15.5766","4129.99","12.0451","0.240902","467.3"
"15.7899","4133.79","12.2089","0.244178","473.7"
"16.0033","4138.26","12.3776","0.247552","480.1"
"16.2165","4141.89","12.5498","0.250996","486.5"
"16.4299","4146.39","12.7207","0.254414","492.9"
"16.6433","4149.96","12.8987","0.257974","499.3"
"16.8567","4154.02","13.0672","0.261344","505.7"
"17.0699","4157.33","13.2301","0.264602","512.1"
"17.2833","4161.02","13.4022","0.268044","518.5"
"17.4966","4164.19","13.575","0.2715","524.9"
"17.7099","4168.1","13.7522","0.275044","531.3"
"17.9233","4171.77","13.9252","0.278504","537.7"
"18.1366","4175.25","14.0961","0.281922","544.1"
"18.35","4179.4","14.2802","0.285604","550.5"
"18.5632","4182.02","14.464","0.28928","556.9"
"18.7766","4186.38","14.6309","0.29261","563.3"
"18.9899","4189.67","14.7836","0.295672","569.7"
"19.2033","4193.47","14.9449","0.298898","576.1"
"19.4165","4196.57","15.1112","0.302224","582.5"
"19.6299","4200.92","15.2631","0.305262","588.9"
"19.8432","4204.4","15.4127","0.308254","595.3"
"20.0566","4208.03","15.5687","0.311374","601.7"
"20.27","4211.59","15.7263","0.314526","608.1"
"20.4832","4214.88","15.8764","0.317528","614.5"
"20.6966","4218.16","16.0305","0.32061","620.9"
"20.9099","4221.51","16.1915","0.32383","627.3"
"21.1233","4225.51","16.3529","0.327058","633.7"
"21.3366","4228.73","16.509","0.33018","640.1"
"21.5499","4231.75","16.6774","0.333548","646.5"
"21.7633","4234.8","16.8423","0.336846","652.9"
"21.9766","4237.64","17.0068","0.340136","659.3"
"22.1899","4240.75","17.1724","0.343448","665.7"
"22.4032","4242.73","17.3453","0.346906","672.1"
"22.6166","4245.45","17.5158","0.350316","678.5"
"22.8299","4247.45","17.6956","0.353912","684.9"
"23.0433","4249.95","17.8554","0.357108","691.3"
"23.2565","4251.84","18.0227","0.360454","697.7"
"23.47","4254.56","18.1879","0.363758","704.1"
"23.6833","4256.71","18.36","0.3672","710.5"
"23.8966","4259.08","18.5302","0.370604","716.9"
"24.1099","4260.91","18.7142","0.374284","723.3"
"24.3232","4263.6","18.8785","0.37757","729.7"
"24.5366","4265.88","19.0505","0.38101","736.1"
"24.7499","4267.77","19.2274","0.384548","742.5"
"24.9633","4270.5","19.4135","0.38827","748.9"
"25.1765","4271.94","19.6189","0.392378","755.3"
"25.39","4274.54","19.8153","0.396306","761.7"
"25.6032","4276.17","19.9773","0.399546","768.1"
"25.8167","4278.55","20.1453","0.402906","774.5"
"26.0299","4280.26","20.3195","0.40639","780.9"
"26.2432","4282.69","20.5006","0.410012","787.3"
"26.4566","4284.52","20.666","0.41332","793.7"
"26.6699","4286.78","20.8479","0.416958","800.1"
"26.8833","4288.5","21.0282","0.420564","806.5"
"27.0966","4291.08","21.2141","0.424282","812.9"
"27.3099","4293.13","21.3961","0.427922","819.3"
"27.5232","4294.79","21.5839","0.431678","825.7"
"27.7366","4296.81","21.757","0.43514","832.1"
"27.9499","4298.26","21.9317","0.438634","838.5"
"28.1633","4300.5","22.1049","0.442098","844.9"
"28.3765","4301.72","22.2707","0.445414","851.3"
"28.59","4303.97","22.4525","0.44905","857.7"
"28.8032","4305.44","22.6159","0.452318","864.1"
"29.0166","4307.42","22.7947","0.455894","870.5"
"29.23","4309.1","22.9622","0.459244","876.9"
"29.4432","4310.59","23.1477","0.462954","883.3"
"29.6566","4312.41","23.3248","0.466496","889.7"
"29.8699","4313.13","23.4892","0.469784","896.1"
"30.0833","4315.51","23.6511","0.473022","902.5"
"30.2966","4316.84","23.8153","0.476306","908.9"
"30.5099","4318.84","24.0009","0.480018","915.3"
"30.7233","4318.97","24.1696","0.483392","921.7"
"30.9366","4320.22","24.3495","0.48699","928.1"
"31.1499","4322.07","24.5258","0.490516","934.5"
"31.3632","4323.68","24.7067","0.494134","940.9"
"31.5766","4325.28","24.8945","0.49789","947.3"
"31.7899","4326.57","25.1176","0.502352","953.7"
"32.0033","4328.29","25.2884","0.505768","960.1"
"32.2166","4329.8","25.4844","0.509688","966.5"
"32.4299","4331.38","25.6631","0.513262","972.9"
"32.6432","4332.31","25.8264","0.516528","979.3"
"32.8566","4334.13","25.9921","0.519842","985.7"
"33.0699","4335.38","26.1649","0.523298","992.1"
"33.2833","4336.74","26.3427","0.526854","998.5"
"33.4966","4337.9","26.509","0.53018","1004.9"
"33.7099","4338.99","26.6683","0.533366","1011.3"
"33.9233","4340.47","26.8437","0.536874","1017.7"
"34.1366","4341.26","27.0236","0.540472","1024.1"
"34.35","4342.85","27.2109","0.544218","1030.5"
"34.5632","4343.14","27.3709","0.547418","1036.9"
"34.7766","4344.64","27.534","0.55068","1043.3"
"34.9899","4345.24","27.7041","0.554082","1049.7"
"35.2033","4346.48","27.8687","0.557374","1056.1"
"35.4166","4347.46","28.0342","0.560684","1062.5"
"35.6298","4348.35","28.2062","0.564124","1068.9"
"35.8433","4350.09","28.3904","0.567808","1075.3"
"36.0566","4350.71","28.593","0.57186","1081.7"
"36.27","4352.02","28.8661","0.577322","1088.1"
"36.4832","4352.72","29.134","0.58268","1094.5"
"36.6966","4353.75","29.34","0.5868","1100.9"
"36.9099","4354.52","29.4936","0.589872","1107.3"
"37.1233","4355.76","29.6659","0.593318","1113.7"
"37.3366","4356.85","29.8244","0.596488","1120.1"
"37.5499","4357.63","29.988","0.599828","1126.5"
"37.7632","4358.33","30.1591","0.603182","1132.9"
"37.9766","4358.83","30.35","0.607","1139.3"
"38.19","4359.77","30.5404","0.610808","1145.7"
"38.4032","4360.03","30.756","0.61512","1152.1"
"38.6166","4360.79","30.9585","0.61917","1158.5"
"38.8299","4361.51","31.1733","0.623466","1164.9"
"39.0433","4362.18","31.3515","0.62703","1171.3"
"39.2566","4362.65","31.5416","0.630832","1177.7"
"39.47","4363.12","31.7162","0.634324","1184.1"
"39.6833","4363.95","31.8998","0.637996","1190.5"
"39.8966","4364.6","32.0804","0.641608","1196.9"
"40.1099","4364.91","32.275","0.6455","1203.3"
"40.3232","4365.24","32.4637","0.649274","1209.7"
"40.5366","4365.74","32.6437","0.652874","1216.1"
"40.7499","4365.9","32.8306","0.656612","1222.5"
"40.9633","4366.5","33.0208","0.660416","1228.9"
"41.1766","4366.83","33.214","0.66428","1235.3"
"41.3899","4367.44","33.4002","0.668004","1241.7"
"41.6033","4367.58","33.5943","0.671886","1248.1"
"41.8166","4367.69","33.802","0.67604","1254.5"
"42.0299","4365.8","33.9871","0.679742","1260.9"
"42.2432","4363.39","34.1835","0.68367","1267.3"
"42.4566","4363.27","34.3323","0.686646","1273.7"
"42.6699","4361.8","34.4858","0.689716","1280.1"
"42.8833","4361.26","34.6295","0.69259","1286.5"
"43.0966","4359.89","34.7791","0.695582","1292.9"
"43.31","4359.42","34.9388","0.698776","1299.3"
"43.5232","4355.3","35.0914","0.701828","1305.7"
"43.7367","4351.13","35.2293","0.704586","1312.1"
"43.9499","4344.5","35.3607","0.707214","1318.5"
"44.1632","4333.69","35.4982","0.709964","1324.9"
"44.2557","-229.053","35.4283","0.708566","1327.66"