Folder: MFRPPO/experimental_data/tensile_specimen_test_data/tensile_test_data/20250312/original_data/SSS 6 03-12-25 16 18 12 下午

Note: README.md
# MFRPPO
Enhanced Mechanical Properties of 3D Printed Composites via Continuous Metal Fiber Reinforcement and Process Parameter Optimization

File: 数采：横梁, … - (实时值).csv
"文件路径: C:\Users\Lenovo\Desktop\Wayne\20250312\原始数据\SSS 6 03-12-25 16 18 12 下午\数采：横梁, … - (实时值).csv   "
"试验: 拉伸试验（UNIVER）      视频引伸计采集变形-W 1"
"试验运行: SSS 6"
"日期: 2025/3/12 12:54:23"
""
""
"横梁 ","力 ","视频引伸计变形 ","应变 ","时间 "
"mm","N","mm","mm/mm","sec"
"0.00274789","31.1616","0.0008","1.6e-05","0.1"
"0.0598948","195.645","0.0651","0.001302","1.8"
"0.116576","359.037","0.1155","0.00231","3.5"
"0.173257","512.146","0.1581","0.003162","5.2"
"0.229938","656.839","0.1999","0.003998","6.9"
"0.286619","792.689","0.2379","0.004758","8.6"
"0.343207","916.395","0.2735","0.00547","10.3"
"0.399842","1017.44","0.3121","0.006192","12"
"0.456523","1096.27","0.3484","0.006968","13.7"
"0.513204","1160.3","0.3841","0.007682","15.4"
"0.569885","1214.74","0.4201","0.008402","17.1"
"0.626566","1262.18","0.4599","0.009198","18.8"
"0.683248","1304.77","0.4973","0.009946","20.5"
"0.739929","1343.08","0.5337","0.010674","22.2"
"0.79661","1378","0.5707","0.011414","23.9"
"0.853244","1410.05","0.609","0.01218","25.6"
"0.909926","1439.44","0.6467","0.012934","27.3"
"0.96656","1466.58","0.6828","0.013656","29"
"1.02324","1491.75","0.7203","0.014406","30.7"
"1.07983","1515.28","0.757","0.01514","32.4"
"1.13656","1537.06","0.7944","0.015888","34.1"
"1.19315","1557.21","0.8304","0.016608","35.8"
"1.24992","1576.34","0.8686","0.017372","37.5"
"1.30655","1594.18","0.9045","0.01809","39.2"
"1.36328","1611.11","0.9395","0.01879","40.9"
"1.41992","1627.24","0.9763","0.019526","42.6"
"1.4766","1642.68","1.0157","0.020314","44.3"
"1.53328","1657.17","1.0513","0.021026","46"
"1.58996","1671.16","1.0884","0.021768","47.7"
"1.64655","1684.14","1.1265","0.02253","49.4"
"1.70318","1697.02","1.163","0.02326","51.1"
"1.75986","1709.57","1.1996","0.023992","52.8"
"1.81654","1721.75","1.236","0.02472","54.5"
"1.87323","1733.42","1.2749","0.025498","56.2"
"1.92986","1744.73","1.311","0.02622","57.9"
"1.98659","1755.64","1.3467","0.026934","59.6"
"2.04327","1766.73","1.3859","0.027718","61.3"
"2.09995","1777","1.4214","0.028428","63"
"2.15658","1787.51","1.4584","0.029168","64.7"
"2.21327","1797.32","1.4944","0.029888","66.4"
"2.2699","1807.15","1.5336","0.030672","68.1"
"2.32654","1816.86","1.5695","0.03139","69.8"
"2.38322","1826.86","1.6064","0.032128","71.5"
"2.43985","1835.89","1.6426","0.032852","73.2"
"2.49653","1845.26","1.6823","0.033646","74.9"
"2.55321","1854.58","1.7185","0.03437","76.6"
"2.60994","1863.5","1.7558","0.035116","78.3"
"2.66662","1872.29","1.792","0.03584","80"
"2.72326","1880.81","1.8304","0.036608","81.7"
"2.77994","1889.61","1.8675","0.03735","83.4"
"2.83657","1898.22","1.903","0.03806","85.1"
"2.8933","1906.59","1.9423","0.038846","86.8"
"2.94984","1914.4","1.9786","0.039572","88.5"
"3.00657","1922.46","2.1238","0.042476","90.2"
"3.0632","1930.74","2.1577","0.043154","91.9"
"3.11993","1938.8","2.1987","0.043974","93.6"
"3.17652","1946.67","2.2322","0.044644","95.3"
"3.23329","1954.09","2.2695","0.04539","97"
"3.28993","1961.83","2.3079","0.046158","98.7"
"3.34666","1969.4","2.3449","0.046898","100.4"
"3.40329","1976.71","2.3829","0.047658","102.1"
"3.45993","1983.95","2.4167","0.048334","103.8"
"3.51656","1990.87","2.4582","0.049164","105.5"
"3.57324","1998.12","2.4926","0.049852","107.2"
"3.62988","2005.08","2.5272","0.050544","108.9"
"3.68656","2012.11","2.5648","0.051296","110.6"
"3.74324","2019.17","2.6033","0.052066","112.3"
"3.79987","2025.72","2.6399","0.052798","114"
"3.8566","2032.49","2.6749","0.053498","115.7"
"3.91328","2038.97","2.7142","0.05421","117.4"
"3.96996","2045.54","2.7495","0.05499","119.1"
"4.0266","2051.81","2.785","0.0557","120.8"
"4.08328","2058.22","2.8226","0.056452","122.5"
"4.13991","2064.35","2.8552","0.057104","124.2"
"4.19659","2070.54","2.8951","0.057902","125.9"
"4.25323","2076.44","2.9321","0.058642","127.6"
"4.30986","2082.33","2.9657","0.059314","129.3"
"4.36654","2088.08","3.0044","0.060088","131"
"4.42322","2093.95","3.04","0.0608","132.7"
"4.47991","2099.74","3.0762","0.061524","134.4"
"4.53659","2105.55","3.111","0.06222","136.1"
"4.59327","2110.94","3.1477","0.062954","137.8"
"4.64995","2116.35","3.1842","0.063684","139.5"
"4.70658","2121.55","3.2204","0.064408","141.2"
"4.76327","2126.67","3.2558","0.065116","142.9"
"4.8199","2131.81","3.2951","0.065902","144.6"
"4.87658","2136.89","3.3303","0.066606","146.3"
"4.93322","2141.98","3.3658","0.067316","148"
"4.9899","2147.01","3.405","0.0681","149.7"
"5.04653","2151.62","3.4408","0.068816","151.4"
"5.10326","2156.58","3.4774","0.069548","153.1"
"5.15989","2161.08","3.5108","0.070216","154.8"
"5.21667","2165.86","3.5509","0.071018","156.5"
"5.27326","2170.17","3.5824","0.071648","158.2"
"5.32994","2174.64","3.6199","0.072398","159.9"
"5.38657","2178.73","3.6589","0.073178","161.6"
"5.44325","2182.98","3.6942","0.073884","163.3"
"5.49989","2186.56","3.7281","0.074562","165"
"5.55657","2190.68","3.7618","0.075236","166.7"
"5.6132","2194.62","3.7988","0.075976","168.4"
"5.66988","2198.72","3.8331","0.076662","170.1"
"5.72657","2202.58","3.8709","0.077418","171.8"
"5.78325","2206.12","3.9049","0.078098","173.5"
"5.83993","2209.95","3.942","0.07884","175.2"
"5.89656","2213.78","3.9763","0.079526","176.9"
"5.95329","2217.34","4.0138","0.080276","178.6"
"6.00992","2221.03","4.0482","0.080964","180.3"
"6.06656","2224.36","4.0838","0.081676","182"
"6.12319","2225.13","4.1187","0.082374","183.7"
"6.17987","2227.96","4.1547","0.083094","185.4"
"6.23656","2231.74","4.1948","0.083896","187.1"
"6.29319","2234.84","4.2281","0.084562","188.8"
"6.34987","2238.36","4.2618","0.085236","190.5"
"6.40655","2239.45","4.3008","0.086016","192.2"
"6.46328","2242.8","4.3329","0.086658","193.9"
"6.51996","2245.75","4.3692","0.087384","195.6"
"6.5766","2249.21","4.401","0.08802","197.3"
"6.63328","2251.99","4.4374","0.088748","199"
"6.68991","2254.8","4.4732","0.089464","200.7"
"6.74659","2257.57","4.5056","0.090112","202.4"
"6.80318","2260.5","4.5418","0.090836","204.1"
"6.85986","2262.96","4.5775","0.09155","205.8"
"6.9165","2265.87","4.6114","0.092228","207.5"
"6.97322","2268.14","4.65","0.093","209.2"
"7.02991","2270.81","4.6828","0.093656","210.9"
"7.08659","2273.54","4.7173","0.094346","212.6"
"7.14322","2275.87","4.7558","0.095116","214.3"
"7.19995","2278.27","4.7904","0.095808","216"
"7.25658","2280.76","4.8276","0.096552","217.7"
"7.31326","2283.08","4.8616","0.097232","219.4"
"7.3699","2285.33","4.8983","0.097966","221.1"
"7.42653","2287.28","4.9331","0.098662","222.8"
"7.48321","2289.4","4.969","0.09938","224.5"
"7.5399","2291.1","4.997","0.09994","226.2"
"7.59653","2293.36","5.0313","0.100626","227.9"
"7.65321","2295.14","5.0733","0.101414","229.6"
"7.70994","2297.02","5.1025","0.10205","231.3"
"7.76662","2298.78","5.1398","0.102796","233"
"7.8233","2300.7","5.177","0.10354","234.7"
"7.87989","2302.45","5.2088","0.104176","236.4"
"7.93657","2304.69","5.2498","0.104996","238.1"
"7.99321","2306.21","5.2809","0.105618","239.8"
"8.04989","2307.99","5.3121","0.106242","241.5"
"8.10652","2309.44","5.3454","0.106908","243.2"
"8.1632","2311.1","5.3829","0.107658","244.9"
"8.21988","2312.15","5.4195","0.10839","246.6"
"8.27656","2313.81","5.455","0.1091","248.3"
"8.33325","2315.3","5.4882","0.109764","250"
"8.38993","2316.98","5.5186","0.110372","251.7"
"8.44661","2317.65","5.554","0.11108","253.4"
"8.50329","2319.28","5.5893","0.111786","255.1"
"8.55992","2320.72","5.615","0.1123","256.8"
"8.6166","2322.7","5.6537","0.113074","258.5"
"8.67319","2323.72","5.6864","0.113728","260.2"
"8.72987","2325.25","5.7227","0.114454","261.9"
"8.78651","2326.22","5.7502","0.115004","263.6"
"8.84328","2327.62","5.7885","0.11577","265.3"
"8.89987","2328.94","5.8252","0.11648","267"
"8.9566","2330.51","5.8576","0.117152","268.7"
"9.01323","2331.54","5.8918","0.117836","270.4"
"9.06996","2332.73","5.9252","0.118504","272.1"
"9.1266","2333.78","5.9638","0.119276","273.8"
"9.18328","2334.31","5.9948","0.119896","275.5"
"9.23991","2334.89","6.0277","0.120554","277.2"
"9.29659","2336.36","6.061","0.12122","278.9"
"9.35323","2337.15","6.1027","0.122054","280.6"
"9.40991","2338.32","6.1321","0.122642","282.3"
"9.46654","2338.95","6.1691","0.123382","284"
"9.52322","2339.76","6.1971","0.123942","285.7"
"9.5799","2340.64","6.2335","0.12467","287.4"
"9.63659","2341.71","6.2662","0.125324","289.1"
"9.69327","2342.07","6.2991","0.125982","290.8"
"9.74995","2342.92","6.3317","0.126634","292.5"
"9.80658","2343.56","6.3657","0.127314","294.2"
"9.86326","2344.62","6.401","0.12802","295.9"
"9.91995","2345.32","6.4391","0.128782","297.6"
"9.97658","2346.09","6.4665","0.12933","299.3"
"10.0332","2346.79","6.505","0.1301","301"
"10.0899","2347.7","6.5328","0.130656","302.7"
"10.1465","2348.72","6.5667","0.131238","304.4"
"10.2032","2347.83","6.5961","0.131922","306.1"
"10.2599","2348.95","6.625","0.1325","307.8"
"10.3166","2349.78","6.6622","0.133244","309.5"
"10.3733","2349.62","6.6889","0.133778","311.2"
"10.4299","2348.13","6.7135","0.13427","312.9"
"10.4866","2348.76","6.7438","0.134876","314.6"
"10.5432","2349.18","6.7703","0.135406","316.3"
"10.5999","2349.42","6.801","0.13602","318"
"10.6565","2349.85","6.829","0.13658","319.7"
"10.7132","2350.14","6.8606","0.137212","321.4"
"10.7698","2350.52","6.8842","0.137684","323.1"
"10.8266","2350.51","6.9075","0.13815","324.8"
"10.8832","2350.66","6.9434","0.138868","326.5"
"10.94","2350.68","6.9618","0.139236","328.2"
"10.9966","2350.73","6.9925","0.13985","329.9"
"11.0533","2350.72","7.0144","0.140288","331.6"
"11.1099","2350.73","7.0479","0.140958","333.3"
"11.1666","2350.62","7.0652","0.141304","335"
"11.2232","2348.4","7.0907","0.141814","336.7"
"11.2799","2348.19","7.1111","0.142222","338.4"
"11.3365","2347.96","7.1353","0.142706","340.1"
"11.3932","2347.22","7.1574","0.143148","341.8"
"11.4499","2346.7","7.1809","0.143618","343.5"
"11.5066","2340.69","7.1972","0.143944","345.2"
"11.5633","2332.42","7.2178","0.144356","346.9"
"11.6199","2322.45","7.2169","0.144338","348.6"
"11.6766","2275.1","7.2198","0.144396","350.3"
"11.7236","528.259","7.1967","0.143934","351.706"