Folder: MFRPPO/experimental_data/tensile_specimen_test_data/tensile_test_data/20250312/original_data/SSS 15 03-12-25 16 18 12 下午

Note: README.md
# MFRPPO
Enhanced Mechanical Properties of 3D Printed Composites via Continuous Metal Fiber Reinforcement and Process Parameter Optimization

File: 数采：横梁, … - (实时值).csv
"文件路径: C:\Users\Lenovo\Desktop\Wayne\20250312\原始数据\SSS 15 03-12-25 16 18 12 下午\数采：横梁, … - (实时值).csv   "
"试验: 拉伸试验（UNIVER）      视频引伸计采集变形-W 1"
"试验运行: SSS 15"
"日期: 2025/3/12 15:38:42"
""
""
"横梁 ","力 ","视频引伸计变形 ","应变 ","时间 "
"mm","N","mm","mm/mm","sec"
"0.00270132","-24.3286","0.0003","6e-06","0.1"
"0.153277","803.451","0.166","0.00332","4.6"
"0.303246","1365.4","0.248","0.00496","9.1"
"0.453263","1651.69","0.2941","0.005882","13.6"
"0.603233","1889.08","0.3311","0.006622","18.1"
"0.753249","2110.27","0.3745","0.00749","22.6"
"0.903265","2319.67","0.4175","0.00835","27.1"
"1.05324","2515.29","0.4668","0.009336","31.6"
"1.20334","2697.71","0.5194","0.010388","36.1"
"1.35327","2861.98","0.5756","0.011512","40.6"
"1.50324","3006.56","0.6381","0.012762","45.1"
"1.65325","3123.03","0.7245","0.01449","49.6"
"1.80322","3233.78","0.8009","0.016018","54.1"
"1.95329","3311.31","0.8643","0.017286","58.6"
"2.10316","3394","0.9476","0.018952","63.1"
"2.25327","3459.08","1.0403","0.020806","67.6"
"2.40329","3520.96","1.1315","0.02263","72.1"
"2.55321","3554.79","1.2066","0.024132","76.6"
"2.70328","3620.33","1.2886","0.025772","81.1"
"2.8532","3665.76","1.3834","0.027668","85.6"
"3.00326","3708.57","1.4791","0.029582","90.1"
"3.15328","3748.77","1.5772","0.031544","94.6"
"3.30325","3783.47","1.6536","0.033072","99.1"
"3.45331","3820.26","1.7526","0.035052","103.6"
"3.60323","3854.92","1.8485","0.03697","108.1"
"3.75325","3887.78","1.9487","0.038974","112.6"
"3.90327","3919.44","2.3969","0.047938","117.1"
"4.05324","3950.62","2.5038","0.050076","121.6"
"4.20325","3897.13","2.6355","0.05271","126.1"
"4.35322","3992.06","2.7184","0.054368","130.6"
"4.50329","4022.47","2.8217","0.056434","135.1"
"4.65321","4049.62","2.9295","0.05859","139.6"
"4.80327","4076.36","3.0362","0.060724","144.1"
"4.95329","4101.86","3.1445","0.06289","148.6"
"5.10321","4124.86","3.2474","0.064948","153.1"
"5.25328","4149.48","3.3579","0.067158","157.6"
"5.40325","4172.24","3.4652","0.069304","162.1"
"5.55331","4195.61","3.5743","0.071486","166.6"
"5.70323","4216.75","3.6851","0.073702","171.1"
"5.85325","4237.93","3.7901","0.075802","175.6"
"6.00331","4258.52","3.9005","0.07801","180.1"
"6.15319","4277.87","4.0109","0.080218","184.6"
"6.30325","4297.58","4.1197","0.082394","189.1"
"6.45322","4315.14","4.2295","0.08459","193.6"
"6.60324","4333.04","4.3384","0.086768","198.1"
"6.75325","4350.19","4.4477","0.088954","202.6"
"6.90322","4366.81","4.5558","0.091116","207.1"
"7.05329","4383.12","4.667","0.09334","211.6"
"7.20321","4397.91","4.7784","0.095568","216.1"
"7.35327","4412.98","4.8875","0.09775","220.6"
"7.50324","4427.7","4.9965","0.09993","225.1"
"7.65326","4441.56","5.1079","0.102158","229.6"
"7.80332","4455.8","5.2169","0.104338","234.1"
"7.9532","4468.29","5.3337","0.106674","238.6"
"8.10326","4480.84","5.439","0.10878","243.1"
"8.25328","4493.48","5.5469","0.110938","247.6"
"8.4032","4504.91","5.6538","0.113076","252.1"
"8.55326","4516.61","5.7636","0.115272","256.6"
"8.70323","4527.85","5.8744","0.117488","261.1"
"8.85325","4539.19","5.9837","0.119674","265.6"
"9.00327","4549.83","6.091","0.12182","270.1"
"9.15324","4559.74","6.2","0.124","274.6"
"9.3033","4570.19","6.3078","0.126156","279.1"
"9.45322","4579.25","6.4206","0.128412","283.6"
"9.60329","4589.33","6.5263","0.130526","288.1"
"9.75326","4598.72","6.6361","0.132722","292.6"
"9.90327","4607.79","6.7458","0.134916","297.1"
"10.0533","4616.22","6.8511","0.137022","301.6"
"10.2033","4625.05","6.963","0.13926","306.1"
"10.3533","4633.89","7.07","0.1414","310.6"
"10.5032","4641.54","7.1821","0.143642","315.1"
"10.6533","4650.27","7.2886","0.145772","319.6"
"10.8032","4657.69","7.3984","0.147968","324.1"
"10.9532","4665.51","7.5035","0.15007","328.6"
"11.1033","4673.5","7.6152","0.152246","333.1"
"11.2532","4680.34","7.7222","0.154444","337.6"
"11.4033","4688.5","7.8296","0.156592","342.1"
"11.5532","4695.45","7.9465","0.15893","346.6"
"11.7032","4700.87","8.0519","0.161038","351.1"
"11.8533","4708.44","8.1634","0.163268","355.6"
"12.0033","4714.9","8.2683","0.165366","360.1"
"12.1533","4721.98","8.376","0.16752","364.6"
"12.3032","4727.43","8.4875","0.16975","369.1"
"12.4533","4734.04","8.5962","0.171924","373.6"
"12.6032","4740.54","8.709","0.17418","378.1"
"12.7532","4745.67","8.8155","0.17631","382.6"
"12.9033","4752.43","8.9267","0.178534","387.1"
"13.0532","4758.04","9.0366","0.180732","391.6"
"13.2033","4763.69","9.1505","0.18301","396.1"
"13.3532","4769.53","9.2631","0.185262","400.6"
"13.5032","4775.22","9.3696","0.187392","405.1"
"13.6533","4780.78","9.482","0.18964","409.6"
"13.8032","4785.54","9.5952","0.191904","414.1"
"13.9533","4791.49","9.7044","0.194088","418.6"
"14.1033","4796.5","9.8167","0.196334","423.1"
"14.2533","4801.64","9.9335","0.19867","427.6"
"14.4033","4807.1","10.0407","0.200814","432.1"
"14.5532","4811.91","10.1513","0.203026","436.6"
"14.7033","4816.81","10.2628","0.205256","441.1"
"14.8533","4821.47","10.3763","0.207526","445.6"
"15.0032","4826.42","10.4884","0.209768","450.1"
"15.1533","4830.9","10.5993","0.211986","454.6"
"15.3032","4835.71","10.7093","0.214186","459.1"
"15.4532","4840.48","10.8242","0.216484","463.6"
"15.6032","4844.51","10.9327","0.218654","468.1"
"15.7533","4849.11","11.045","0.2209","472.6"
"15.9032","4852.97","11.1529","0.223058","477.1"
"16.0532","4857.08","11.2649","0.225298","481.6"
"16.2033","4861.78","11.3764","0.227528","486.1"
"16.3532","4865.85","11.485","0.2297","490.6"
"16.5033","4870.27","11.6001","0.232002","495.1"
"16.6533","4873.79","11.7101","0.234202","499.6"
"16.8032","4878.12","11.8213","0.236426","504.1"
"16.9533","4881.875","11.9305","0.23861","508.6"
"17.1032","4885.43","12.0419","0.240838","513.1"
"17.2533","4890.05","12.1558","0.243116","517.6"
"17.4032","4893","12.2665","0.24533","522.1"
"17.5532","4896.9","12.3808","0.247616","526.6"
"17.7033","4901.01","12.4879","0.249758","531.1"
"17.8532","4904.1","12.597","0.25194","535.6"
"18.0033","4908.19","12.7097","0.254194","540.1"
"18.1532","4911.72","12.8193","0.256386","544.6"
"18.3033","4915.52","12.9337","0.258674","549.1"
"18.4533","4918.93","13.0456","0.260784","553.6"
"18.6032","4922.22","13.15","0.263","558.1"
"18.7533","4925.98","13.2622","0.265244","562.6"
"18.9032","4928.29","13.3721","0.267442","567.1"
"19.0533","4932.31","13.4825","0.26965","571.6"
"19.2032","4935.26","13.5924","0.271848","576.1"
"19.3532","4938.71","13.7063","0.274126","580.6"
"19.5033","4942.31","13.8148","0.276296","585.1"
"19.6532","4945.4","13.9244","0.278488","589.6"
"19.8033","4948.92","14.0304","0.280608","594.1"
"19.9533","4952.69","14.1416","0.282832","598.6"
"20.1032","4955.95","14.2524","0.285048","603.1"
"20.2533","4958.88","14.3604","0.287208","607.6"
"20.4032","4961.88","14.4645","0.28929","612.1"
"20.5533","4964.94","14.5781","0.291562","616.6"
"20.7032","4967.09","14.6851","0.293702","621.1"
"20.8533","4970.2","14.789","0.29578","625.6"
"21.0033","4973.5","14.8941","0.297882","630.1"
"21.1532","4975.58","14.9995","0.29999","634.6"
"21.3033","4978.4","15.1064","0.302128","639.1"
"21.4532","4979.79","15.2056","0.304112","643.6"
"21.6032","4982.31","15.3125","0.30625","648.1"
"21.7532","4984.24","15.4108","0.308216","652.6"
"21.9032","4986.98","15.5196","0.310392","657.1"
"22.0533","4988.86","15.6187","0.312374","661.6"
"22.2032","4989.38","15.7208","0.314416","666.1"
"22.3533","4991.97","15.8144","0.316288","670.6"
"22.5033","4993.76","15.9158","0.318316","675.1"
"22.6533","4996.35","16.014","0.32028","679.6"
"22.8033","4998.79","16.1115","0.32223","684.1"
"22.9533","5000.99","16.2076","0.324152","688.6"
"23.1033","5003.53","16.3055","0.32611","693.1"
"23.2532","5005.56","16.4014","0.328028","697.6"
"23.4033","5007.83","16.5012","0.330024","702.1"
"23.5533","5010.43","16.5964","0.331928","706.6"
"23.7032","5012.85","16.6934","0.333868","711.1"
"23.8533","5015.86","16.7863","0.335726","715.6"
"24.0032","5017.1","16.8896","0.337792","720.1"
"24.1533","5020","16.9864","0.339728","724.6"
"24.3032","5021.92","17.0804","0.341608","729.1"
"24.4532","5023.96","17.1757","0.343514","733.6"
"24.6033","5026.67","17.2712","0.345424","738.1"
"24.7532","5028.6","17.366","0.34732","742.6"
"24.9033","5031.18","17.4662","0.349324","747.1"
"25.0533","5032.91","17.5582","0.351164","751.6"
"25.2033","5035.42","17.6533","0.353066","756.1"
"25.3533","5037.52","17.748","0.35496","760.6"
"25.5032","5036.78","17.8427","0.356854","765.1"
"25.6533","5039.66","17.9355","0.35871","769.6"
"25.8032","5041.44","18.0277","0.360554","774.1"
"25.9533","5043.58","18.1194","0.362388","778.6"
"26.1033","5045.3","18.2147","0.364294","783.1"
"26.2532","5047.43","18.3028","0.366056","787.6"
"26.4033","5049.55","18.3994","0.367988","792.1"
"26.5532","5050.35","18.4894","0.369788","796.6"
"26.7033","5052.95","18.5785","0.37157","801.1"
"26.8533","5054.59","18.6679","0.373358","805.6"
"27.0032","5055.28","18.7595","0.37519","810.1"
"27.1533","5055.27","18.8473","0.376946","814.6"
"27.3033","5057.11","18.9325","0.37865","819.1"
"27.4533","5057.24","19.0219","0.380438","823.6"
"27.6032","5057.31","19.0973","0.381946","828.1"
"27.7533","5057.93","19.1786","0.383572","832.6"
"27.9033","5059.56","19.2607","0.385214","837.1"
"28.0532","5057.5","19.3356","0.386712","841.6"
"28.2033","5059.31","19.4112","0.388224","846.1"
"28.3532","5055.1","19.4834","0.389668","850.6"
"28.5032","5051.22","19.5505","0.39101","855.1"
"28.6532","5049.9","19.6117","0.392234","859.6"
"28.8032","5044.59","19.6689","0.393378","864.1"
"28.9533","5044.3","19.7226","0.394452","868.6"
"29.1032","5043.63","19.7739","0.395478","873.1"
"29.2532","5039.12","19.8261","0.396522","877.6"
"29.4033","5033.46","19.876","0.39752","882.1"
"29.5533","5030.99","19.9171","0.398342","886.6"
"29.7033","5034.31","19.9629","0.399258","891.1"
"29.8532","5034.7","20.0111","0.400222","895.6"
"30.0033","5027.06","20.0483","0.400966","900.1"
"30.1532","5016.1","20.0818","0.401636","904.6"
"30.3032","4960.03","20.0899","0.401798","909.1"
"30.4533","4891.12","20.088","0.40176","913.6"
"30.6032","4834.6","20.0773","0.401546","918.1"
"30.7533","4731.14","20.0595","0.40119","922.6"
"30.9032","4057.2","19.9094","0.398188","927.1"
"31.0533","3920.41","19.8798","0.397596","931.6"
"31.2033","2895.09","19.6539","0.393078","936.1"
"31.3532","2721.36","19.6202","0.392404","940.6"
"31.4223","1386.3","19.5738","0.391476","942.667"