Folder: MFRPPO/experimental_data/tensile_specimen_test_data/tensile_test_data/20250312/original_data/SSS 5 03-12-25 16 18 12 下午

Note: README.md
# MFRPPO
Enhanced Mechanical Properties of 3D Printed Composites via Continuous Metal Fiber Reinforcement and Process Parameter Optimization

File: 数采：横梁, … - (实时值).csv
"文件路径: C:\Users\Lenovo\Desktop\Wayne\20250312\原始数据\SSS 5 03-12-25 16 18 12 下午\数采：横梁, … - (实时值).csv   "
"试验: 拉伸试验（UNIVER）      视频引伸计采集变形-W 1"
"试验运行: SSS 5"
"日期: 2025/3/12 12:37:46"
""
""
"横梁 ","力 ","视频引伸计变形 ","应变 ","时间 "
"mm","N","mm","mm/mm","sec"
"0.00279447","-97.3476","-0.0002","-4e-06","0.1"
"0.119929","262.084","0.1187","0.002374","3.6"
"0.236552","590.823","0.1996","0.003992","7.1"
"0.353267","880.351","0.2787","0.005574","10.6"
"0.46989","1070.15","0.3593","0.007186","14.1"
"0.586512","1187.7","0.4507","0.009014","17.6"
"0.703275","1284.4","0.536","0.01072","21.1"
"0.819897","1363.34","0.6264","0.012528","24.6"
"0.936566","1428.46","0.7153","0.014306","28.1"
"1.05328","1483.59","0.8032","0.016064","31.6"
"1.16986","1530.57","0.8944","0.017888","35.1"
"1.28653","1559.98","1.0182","0.020364","38.6"
"1.40329","1600.8","1.1113","0.022226","42.1"
"1.51987","1633.77","1.2032","0.024064","45.6"
"1.63658","1664.54","1.2954","0.025908","49.1"
"1.7533","1692.72","1.3872","0.027744","52.6"
"1.86987","1719.45","1.4827","0.029654","56.1"
"1.98663","1744.44","1.5748","0.031496","59.6"
"2.1033","1768.48","1.6672","0.033344","63.1"
"2.21993","1773.29","1.739","0.03478","66.6"
"2.33659","1808.55","1.8219","0.036438","70.1"
"2.45326","1830.03","1.9152","0.038304","73.6"
"2.56989","1850.66","2.2604","0.045208","77.1"
"2.6866","1871.12","2.3665","0.04733","80.6"
"2.80327","1890.56","2.4709","0.049418","84.1"
"2.91989","1908.17","2.5698","0.051396","87.6"
"3.03656","1926.85","2.6655","0.05331","91.1"
"3.15323","1944.27","2.7686","0.055372","94.6"
"3.26985","1961.65","2.8743","0.057486","98.1"
"3.38657","1914.25","2.8537","0.057074","101.6"
"3.50319","1972.78","2.9247","0.058494","105.1"
"3.61991","1990.17","3.0133","0.060266","108.6"
"3.73658","2006.13","3.1134","0.062268","112.1"
"3.8532","2020.85","3.2093","0.064186","115.6"
"3.96992","2035.34","3.3072","0.066144","119.1"
"4.08663","2049.52","3.4035","0.06807","122.6"
"4.20325","2062.7","3.5005","0.07001","126.1"
"4.31992","2075.96","3.6001","0.072002","129.6"
"4.43659","2088.29","3.6978","0.073956","133.1"
"4.55321","2100.31","3.8024","0.076048","136.6"
"4.66993","2112.31","3.9055","0.07811","140.1"
"4.7866","2123.68","3.9982","0.079964","143.6"
"4.90322","2134.67","4.0988","0.081976","147.1"
"5.01994","2145.35","4.2004","0.084008","150.6"
"5.13656","2155.4","4.3041","0.086082","154.1"
"5.25318","2164.77","4.402","0.08804","157.6"
"5.36994","2174.67","4.5056","0.090112","161.1"
"5.48657","2183.39","4.6005","0.09201","164.6"
"5.60319","2188.49","4.701","0.09402","168.1"
"5.71995","2199.5","4.7977","0.095954","171.6"
"5.83657","2207.44","4.9024","0.098048","175.1"
"5.95324","2215.37","5.0003","0.100006","178.6"
"6.07001","2222.88","5.1002","0.102004","182.1"
"6.18658","2229.7","5.2059","0.104118","185.6"
"6.30325","2236.64","5.3038","0.106076","189.1"
"6.41997","2242.98","5.4075","0.10815","192.6"
"6.53654","2248.81","5.5111","0.110222","196.1"
"6.65321","2254.76","5.6197","0.112394","199.6"
"6.76997","2260.84","5.7168","0.114336","203.1"
"6.88655","2265.96","5.8254","0.116508","206.6"
"7.00322","2271.4","5.9253","0.118506","210.1"
"7.11993","2276.76","6.0278","0.120556","213.6"
"7.23651","2281.63","6.125","0.1225","217.1"
"7.35323","2286.29","6.227","0.12454","220.6"
"7.46994","2291.01","6.3293","0.126586","224.1"
"7.58652","2295.48","6.4283","0.128566","227.6"
"7.70323","2299.24","6.534","0.13068","231.1"
"7.81995","2303.63","6.633","0.13266","234.6"
"7.93652","2307.22","6.7297","0.134594","238.1"
"8.05324","2311.64","6.8298","0.136596","241.6"
"8.16996","2314.68","6.9324","0.138648","245.1"
"8.28658","2318.24","7.0322","0.140644","248.6"
"8.40325","2322.06","7.1347","0.142694","252.1"
"8.51992","2325.22","7.232","0.14464","255.6"
"8.63654","2328.08","7.3321","0.146642","259.1"
"8.75325","2329.09","7.4322","0.148644","262.6"
"8.86992","2332.87","7.5282","0.150564","266.1"
"8.98655","2335.97","7.624","0.15248","269.6"
"9.10326","2338.86","7.7254","0.154508","273.1"
"9.21988","2341.65","7.8306","0.156612","276.6"
"9.33651","2343.98","7.9232","0.158464","280.1"
"9.45327","2346.7","8.0245","0.16049","283.6"
"9.56989","2349.07","8.1308","0.162616","287.1"
"9.68656","2351.52","8.2364","0.164728","290.6"
"9.80323","2353.73","8.339","0.16678","294.1"
"9.9199","2355.76","8.459","0.16918","297.6"
"10.0366","2358.01","8.565","0.1713","301.1"
"10.1533","2360.21","8.6748","0.173496","304.6"
"10.2699","2361.98","8.7926","0.175852","308.1"
"10.3866","2364.01","8.9142","0.178284","311.6"
"10.5033","2365.9","9.0506","0.181012","315.1"
"10.6199","2367.56","9.16","0.1832","318.6"
"10.7366","2369.32","9.2781","0.185562","322.1"
"10.8533","2370.52","9.3934","0.187868","325.6"
"10.9699","2372.28","9.5009","0.190018","329.1"
"11.0866","2373.69","9.6249","0.192498","332.6"
"11.2032","2375.23","9.7344","0.194688","336.1"
"11.3199","2376.52","9.8555","0.19711","339.6"
"11.4366","2378.07","9.9652","0.199304","343.1"
"11.5532","2379.2","10.0888","0.201776","346.6"
"11.6699","2380.46","10.2003","0.204006","350.1"
"11.7866","2382","10.3086","0.206172","353.6"
"11.9032","2382.89","10.4361","0.208722","357.1"
"12.0199","2383.77","10.5451","0.210902","360.6"
"12.1366","2385.36","10.661","0.21322","364.1"
"12.2532","2386.17","10.7798","0.215596","367.6"
"12.3699","2387.11","10.9013","0.218026","371.1"
"12.4866","2388.08","11.012","0.22024","374.6"
"12.6032","2388.93","11.1314","0.222628","378.1"
"12.7199","2389.91","11.2501","0.225002","381.6"
"12.8366","2391.01","11.3533","0.227066","385.1"
"12.9532","2391.39","11.4804","0.229608","388.6"
"13.0699","2392.39","11.6113","0.232226","392.1"
"13.1866","2393.06","11.7461","0.234922","395.6"
"13.3032","2393.55","11.8766","0.237532","399.1"
"13.4199","2394.73","12.0089","0.240178","402.6"
"13.5366","2395.47","12.144","0.24288","406.1"
"13.6532","2396.06","12.2766","0.245532","409.6"
"13.7699","2397.07","12.4124","0.248248","413.1"
"13.8866","2397.68","12.5402","0.250804","416.6"
"14.0032","2398.01","12.6804","0.253608","420.1"
"14.12","2398.84","12.8102","0.256204","423.6"
"14.2366","2399.46","12.9477","0.258954","427.1"
"14.3532","2400.16","13.0846","0.261692","430.6"
"14.4699","2400.8","13.2204","0.264408","434.1"
"14.5866","2401.01","13.3514","0.267028","437.6"
"14.7032","2401.5","13.4899","0.269798","441.1"
"14.82","2402.16","13.6351","0.272702","444.6"
"14.9366","2402.63","13.7622","0.275244","448.1"
"15.0532","2402.91","13.9121","0.278242","451.6"
"15.17","2403.65","14.0526","0.281052","455.1"
"15.2865","2403.99","14.2065","0.28413","458.6"
"15.4032","2404.6","14.3532","0.287064","462.1"
"15.52","2405.17","14.5106","0.290212","465.6"
"15.6365","2405","14.646","0.29292","469.1"
"15.7532","2405.7","14.8047","0.296094","472.6"
"15.8699","2406.48","14.9538","0.299076","476.1"
"15.9866","2406.63","15.1062","0.302124","479.6"
"16.1033","2407.25","15.2661","0.305322","483.1"
"16.2199","2407.72","15.435","0.3087","486.6"
"16.3366","2408.18","15.5902","0.311804","490.1"
"16.4533","2408.69","15.7429","0.314858","493.6"
"16.5699","2408.89","15.8962","0.317924","497.1"
"16.6865","2409.28","16.0464","0.320928","500.6"
"16.8032","2409.9","16.2138","0.324276","504.1"
"16.92","2410.26","16.3816","0.327632","507.6"
"17.0366","2410.46","16.5806","0.331612","511.1"
"17.1532","2410.89","16.7585","0.33517","514.6"
"17.2699","2411.31","16.9271","0.338542","518.1"
"17.3865","2411.49","17.0893","0.341786","521.6"
"17.5032","2411.83","17.235","0.3447","525.1"
"17.6199","2412.32","17.3752","0.347504","528.6"
"17.7365","2412.59","17.5167","0.350334","532.1"
"17.8533","2413.03","17.6733","0.353466","535.6"
"17.9699","2413.14","17.8192","0.356384","539.1"
"18.0866","2413.26","17.9696","0.359392","542.6"
"18.2033","2413.63","18.1272","0.362544","546.1"
"18.3199","2413.72","18.2793","0.365586","549.6"
"18.4366","2413.78","18.4379","0.368758","553.1"
"18.5533","2414.1","18.6265","0.37253","556.6"
"18.6699","2414.28","18.769","0.37538","560.1"
"18.7866","2414.54","18.9222","0.378444","563.6"
"18.9033","2414.45","19.0855","0.38171","567.1"
"19.0199","2414.4","19.2401","0.384802","570.6"
"19.1366","2414.04","19.4227","0.38845","574.1"
"19.2532","2414.51","19.616","0.39232","577.6"
"19.3699","2414.4","19.8082","0.396164","581.1"
"19.4866","2414.62","19.988","0.39976","584.6"
"19.6032","2414.72","20.1744","0.403488","588.1"
"19.7199","2414.44","20.352","0.40704","591.6"
"19.8366","2414.86","20.5155","0.41031","595.1"
"19.9533","2415.01","20.6947","0.413894","598.6"
"20.0699","2414.65","20.8663","0.417326","602.1"
"20.1866","2414.89","21.0422","0.420844","605.6"
"20.3033","2414.83","21.221","0.42442","609.1"
"20.4199","2414.82","21.3882","0.427764","612.6"
"20.5366","2414.99","21.5587","0.431174","616.1"
"20.6532","2414.81","21.746","0.43492","619.6"
"20.7698","2414.79","21.9203","0.438406","623.1"
"20.8866","2415.03","22.0857","0.441714","626.6"
"21.0032","2414.88","22.2581","0.445162","630.1"
"21.1198","2414.87","22.4239","0.448478","633.6"
"21.2366","2414.68","22.5965","0.45193","637.1"
"21.3532","2410.4","22.7789","0.455578","640.6"
"21.4699","2410.58","22.9369","0.458738","644.1"
"21.5866","2410.62","23.1252","0.462504","647.6"
"21.7032","2406.56","23.3096","0.466192","651.1"
"21.8199","2403.01","23.5246","0.470492","654.6"
"21.9367","1937.27","23.793","0.47586","658.1"
"22.0532","1832.58","24.3107","0.486214","661.6"
"22.1699","1834.42","24.5924","0.491848","665.1"
"22.2866","1833.58","24.8031","0.496062","668.6"
"22.4033","1804.2","25.0512","0.501024","672.1"
"22.5199","1687.84","25.3622","0.507244","675.6"
"22.6366","1578.55","25.6511","0.513022","679.1"
"22.7532","1319.51","26.0615","0.52123","682.6"
"22.8699","791.235","26.5628","0.531256","686.1"
"22.9866","826.409","26.7648","0.535296","689.6"
"23.1032","831.979","26.9812","0.539624","693.1"
"23.2199","826.156","27.2539","0.545078","696.6"
"23.3366","829.628","27.5111","0.550222","700.1"
"23.4532","832.992","27.7417","0.554834","703.6"
"23.5699","835.93","28.0492","0.56081","707.1"
"23.6866","822.745","28.2845","0.56569","710.6"
"23.8032","794.642","28.5026","0.570052","714.1"
"23.92","794.176","28.7544","0.575088","717.6"
"23.9932","795.514","28.9274","0.578548","719.8"