Folder: MFRPPO/experimental_data/tensile_specimen_test_data/tensile_test_data/20250312/original_data/SSS 12 03-12-25 16 18 12 下午

Note: README.md
# MFRPPO
Enhanced Mechanical Properties of 3D Printed Composites via Continuous Metal Fiber Reinforcement and Process Parameter Optimization

File: 数采：横梁, … - (实时值).csv
"文件路径: C:\Users\Lenovo\Desktop\Wayne\20250312\原始数据\SSS 12 03-12-25 16 18 12 下午\数采：横梁, … - (实时值).csv   "
"试验: 拉伸试验（UNIVER）      视频引伸计采集变形-W 1"
"试验运行: SSS 12"
"日期: 2025/3/12 14:44:29"
""
""
"横梁 ","力 ","视频引伸计变形 ","应变 ","时间 "
"mm","N","mm","mm/mm","sec"
"0.00246845","-67.3073","-0.0004","-8e-06","0.1"
"0.173024","771.15","0.2389","0.004778","5.2"
"0.343068","1513.07","0.3823","0.007646","10.3"
"0.513064","2052.49","0.5111","0.010222","15.4"
"0.683015","2392.83","0.641","0.01282","20.5"
"0.853012","2620.85","0.7586","0.015172","25.6"
"1.02306","2751.27","0.9015","0.01803","30.7"
"1.1931","2865.86","1.0185","0.02037","35.8"
"1.363","2948","1.1369","0.022738","40.9"
"1.53305","3015.45","1.2555","0.02511","46"
"1.70309","3073.13","1.3754","0.027508","51.1"
"1.87309","3118.92","1.4813","0.029626","56.2"
"2.04304","3165.58","1.5973","0.031946","61.3"
"2.21303","3207.99","1.7167","0.034334","66.4"
"2.38308","3247.28","1.836","0.03672","71.5"
"2.55303","3285.16","1.9561","0.039122","76.6"
"2.72302","3320.14","2.2589","0.045178","81.7"
"2.89302","3354.71","2.3941","0.047882","86.8"
"3.06311","3387.3","2.5318","0.050636","91.9"
"3.23301","3418.16","2.6712","0.053424","97"
"3.40306","3448.2","2.8082","0.056164","102.1"
"3.57305","3477.53","2.9447","0.058894","107.2"
"3.7431","3479.25","3.0591","0.061182","112.3"
"3.913","3523.45","3.168","0.06336","117.4"
"4.08304","3550.92","3.2999","0.065998","122.5"
"4.25304","3575.87","3.4392","0.068784","127.6"
"4.42304","3599.73","3.5711","0.071422","132.7"
"4.59299","3622.93","3.7029","0.074058","137.8"
"4.76303","3645.37","3.8307","0.076614","142.9"
"4.93308","3666.96","3.9586","0.079172","148"
"5.10307","3686.92","4.0859","0.081718","153.1"
"5.27302","3706.81","4.2062","0.084124","158.2"
"5.44302","3725.92","4.3339","0.086678","163.3"
"5.61311","3744.42","4.4589","0.089178","168.4"
"5.78306","3761.26","4.5827","0.091654","173.5"
"5.95301","3777.88","4.7113","0.094226","178.6"
"6.1231","3793.51","4.8398","0.096796","183.7"
"6.29305","3808.54","4.9639","0.099278","188.8"
"6.46305","3822.73","5.0904","0.101808","193.9"
"6.633","3836.45","5.2214","0.104428","199"
"6.80309","3850.23","5.343","0.10686","204.1"
"6.97304","3862.75","5.4706","0.109412","209.2"
"7.14303","3874.75","5.6014","0.112028","214.3"
"7.31299","3886.49","5.7262","0.114524","219.4"
"7.48312","3898.3","5.8556","0.117112","224.5"
"7.65303","3908.89","5.9777","0.119554","229.6"
"7.82302","3919.48","6.1073","0.122146","234.7"
"7.99307","3929.99","6.2403","0.124806","239.8"
"8.16306","3940.14","6.3683","0.127366","244.9"
"8.33301","3949.73","6.4923","0.129846","250"
"8.50301","3958.59","6.6232","0.132464","255.1"
"8.67305","3967.68","6.7419","0.134838","260.2"
"8.84305","3976.5","6.8711","0.137422","265.3"
"9.01305","3984.58","7.0028","0.140056","270.4"
"9.183","3992.27","7.1281","0.142562","275.5"
"9.35309","4000.64","7.2456","0.144912","280.6"
"9.52308","4008.47","7.3574","0.147148","285.7"
"9.69299","4015.6","7.4618","0.149236","290.8"
"9.86303","4022.64","7.5812","0.151624","295.9"
"10.0331","4030.19","7.7024","0.154048","301"
"10.203","4036.48","7.8274","0.156548","306.1"
"10.373","4043.35","7.9596","0.159192","311.2"
"10.5431","4049.69","8.0868","0.161736","316.3"
"10.7131","4056.22","8.2118","0.164236","321.4"
"10.8831","4062.47","8.3477","0.166954","326.5"
"11.053","4068.33","8.4747","0.169494","331.6"
"11.2231","4074.66","8.6029","0.172058","336.7"
"11.3931","4080.42","8.731","0.17462","341.8"
"11.563","4085.71","8.8516","0.177032","346.9"
"11.733","4091.07","8.9808","0.179616","352"
"11.9031","4097.29","9.1097","0.182194","357.1"
"12.0731","4102.43","9.2301","0.184602","362.2"
"12.243","4107.34","9.3652","0.187304","367.3"
"12.413","4112.41","9.4894","0.189788","372.4"
"12.5831","4117.66","9.6154","0.192308","377.5"
"12.7531","4122.68","9.7581","0.195162","382.6"
"12.923","4126.76","9.8795","0.19759","387.7"
"13.0931","4132.3","10.0179","0.200358","392.8"
"13.2631","4136.66","10.1466","0.202932","397.9"
"13.4331","4141.33","10.2759","0.205518","403"
"13.603","4145.63","10.4071","0.208142","408.1"
"13.7731","4150.18","10.538","0.21076","413.2"
"13.9431","4154.45","10.6661","0.213322","418.3"
"14.113","4158.6","10.7937","0.215874","423.4"
"14.283","4162.54","10.9211","0.218422","428.5"
"14.453","4166.91","11.0484","0.220968","433.6"
"14.6231","4171","11.1849","0.223698","438.7"
"14.793","4174.81","11.3152","0.226304","443.8"
"14.963","4178.7","11.4515","0.22903","448.9"
"15.133","4182.22","11.5827","0.231654","454"
"15.3031","4186.42","11.7171","0.234342","459.1"
"15.473","4189.25","11.8498","0.236996","464.2"
"15.643","4192.55","11.9757","0.239514","469.3"
"15.8131","4196.68","12.1146","0.242292","474.4"
"15.9831","4199.87","12.2454","0.244908","479.5"
"16.153","4202.89","12.3775","0.24755","484.6"
"16.3231","4206.61","12.5003","0.250006","489.7"
"16.493","4209.72","12.6353","0.252706","494.8"
"16.663","4212.71","12.7664","0.255328","499.9"
"16.8331","4215.83","12.9126","0.258252","505"
"17.003","4219.05","13.0523","0.261046","510.1"
"17.1731","4222.41","13.1986","0.263972","515.2"
"17.343","4225.21","13.3403","0.266806","520.3"
"17.513","4228.48","13.4917","0.269834","525.4"
"17.6831","4231.7","13.6434","0.272868","530.5"
"17.8531","4235.03","13.7998","0.275996","535.6"
"18.023","4237.31","13.9476","0.278952","540.7"
"18.193","4240.77","14.0985","0.28197","545.8"
"18.3631","4243.79","14.2522","0.285044","550.9"
"18.533","4246.93","14.414","0.28828","556"
"18.7031","4249.56","14.5711","0.291422","561.1"
"18.8731","4252.42","14.7345","0.29469","566.2"
"19.0431","4255.36","14.8909","0.297818","571.3"
"19.213","4257.51","15.0519","0.301038","576.4"
"19.383","4260.08","15.2108","0.304216","581.5"
"19.5531","4263.17","15.3731","0.307462","586.6"
"19.7231","4265.4","15.5438","0.310876","591.7"
"19.893","4267.96","15.7041","0.314082","596.8"
"20.063","4270.4","15.8738","0.317476","601.9"
"20.2331","4273.72","16.0389","0.320778","607"
"20.403","4275.99","16.2142","0.324284","612.1"
"20.573","4278.92","16.3948","0.327896","617.2"
"20.743","4281.28","16.5704","0.331408","622.3"
"20.9131","4284.39","16.7428","0.334856","627.4"
"21.083","4286.19","16.9111","0.338222","632.5"
"21.253","4288.84","17.0842","0.341684","637.6"
"21.423","4291","17.2582","0.345164","642.7"
"21.593","4293.33","17.4276","0.348552","647.8"
"21.763","4294.97","17.5932","0.351864","652.9"
"21.933","4297.81","17.7527","0.355054","658"
"22.103","4299.73","17.9064","0.358128","663.1"
"22.2731","4302.06","18.0689","0.361378","668.2"
"22.443","4303.58","18.2157","0.364314","673.3"
"22.613","4305.65","18.3768","0.367536","678.4"
"22.7831","4307.63","18.5369","0.370738","683.5"
"22.9531","4309.4","18.6951","0.373902","688.6"
"23.123","4310.91","18.8628","0.377256","693.7"
"23.2931","4312.99","19.0224","0.380448","698.8"
"23.4631","4314.55","19.1877","0.383754","703.9"
"23.6331","4316.48","19.3651","0.387302","709"
"23.803","4317.67","19.5462","0.390924","714.1"
"23.973","4319.94","19.7268","0.394536","719.2"
"24.1431","4321.72","19.9165","0.39833","724.3"
"24.313","4323.54","20.1055","0.40211","729.4"
"24.483","4324.71","20.2866","0.405732","734.5"
"24.6531","4327.13","20.4853","0.409706","739.6"
"24.823","4328.35","20.6718","0.413436","744.7"
"24.993","4330.42","20.8776","0.417552","749.8"
"25.163","4331.64","21.0816","0.421632","754.9"
"25.3331","4333.61","21.2877","0.425754","760"
"25.503","4335.21","21.4591","0.429182","765.1"
"25.673","4336.93","21.6319","0.432638","770.2"
"25.843","4338.53","21.8005","0.43601","775.3"
"26.0131","4340.35","21.9746","0.439492","780.4"
"26.1831","4341.89","22.1605","0.44321","785.5"
"26.353","4343.17","22.3381","0.446762","790.6"
"26.523","4344.79","22.4962","0.449924","795.7"
"26.6931","4346.63","22.6676","0.453404","800.8"
"26.863","4347.92","22.8389","0.456778","805.9"
"27.033","4349.69","23.016","0.46032","811"
"27.203","4351.63","23.2036","0.464072","816.1"
"27.3731","4353.34","23.3731","0.467462","821.2"
"27.543","4354.34","23.5438","0.470876","826.3"
"27.713","4356.28","23.7318","0.474636","831.4"
"27.8831","4358.08","23.9297","0.478594","836.5"
"28.0531","4359.77","24.1127","0.482254","841.6"
"28.223","4360.7","24.2953","0.485906","846.7"
"28.3931","4362.55","24.475","0.4895","851.8"
"28.5631","4363.87","24.6537","0.493074","856.9"
"28.7331","4365.04","24.8361","0.496722","862"
"28.903","4366.24","25.0167","0.500334","867.1"
"29.073","4367.42","25.1956","0.503912","872.2"
"29.2431","4367.54","25.3775","0.50755","877.3"
"29.413","4368.83","25.5332","0.510664","882.4"
"29.583","4369.89","25.6987","0.513974","887.5"
"29.753","4371.16","25.8643","0.517286","892.6"
"29.9231","4372.26","26.0238","0.520476","897.7"
"30.093","4372.28","26.1883","0.523766","902.8"
"30.263","4373.89","26.3518","0.527036","907.9"
"30.4331","4375.46","26.5121","0.530242","913"
"30.6031","4376.39","26.668","0.53336","918.1"
"30.773","4377.65","26.8303","0.536606","923.2"
"30.943","4379.02","26.9815","0.53963","928.3"
"31.1131","4380.49","27.1506","0.543012","933.4"
"31.283","4381.2","27.3372","0.546744","938.5"
"31.453","4382.29","27.5166","0.550332","943.6"
"31.623","4383.13","27.6952","0.553904","948.7"
"31.7931","4384.05","27.8734","0.557468","953.8"
"31.963","4384.83","28.0606","0.561212","958.9"
"32.133","4385.81","28.2527","0.565054","964"
"32.303","4386.65","28.4542","0.569084","969.1"
"32.4731","4386.65","28.6473","0.572946","974.2"
"32.643","4387.4","28.8142","0.576284","979.3"
"32.813","4387.24","28.9984","0.579968","984.4"
"32.9831","4388.71","29.1938","0.583876","989.5"
"33.1531","4381.72","29.4151","0.588302","994.6"
"33.323","4373.62","29.6378","0.592756","999.7"
"33.4931","4366.37","29.8858","0.597716","1004.8"
"33.6631","4363.4","30.1168","0.602336","1009.9"
"33.8331","4339.82","30.4002","0.608004","1015"
"34.003","4323.11","30.7062","0.614124","1020.1"
"34.173","4291.64","30.9121","0.618242","1025.2"
"34.3431","4259.53","31.2343","0.624686","1030.3"
"34.513","4195.57","31.3863","0.627726","1035.4"
"34.683","3642.33","31.6414","0.632828","1040.5"
"34.8531","3553.03","31.857","0.63714","1045.6"
"35.0231","3438.41","32.0416","0.640832","1050.7"
"35.193","3401.07","32.2537","0.645074","1055.8"
"35.2989","658.771","32.5735","0.65147","1058.97"