Folder: MFRPPO/experimental_data/tensile_specimen_test_data/tensile_test_data/20250312/original_data/SSS 3 03-12-25 16 18 12 下午

Note: README.md
# MFRPPO
Enhanced Mechanical Properties of 3D Printed Composites via Continuous Metal Fiber Reinforcement and Process Parameter Optimization

File: 数采：横梁, … - (实时值).csv
"文件路径: C:\Users\Lenovo\Desktop\Wayne\20250312\原始数据\SSS 3 03-12-25 16 18 12 下午\数采：横梁, … - (实时值).csv   "
"试验: 拉伸试验（UNIVER）      视频引伸计采集变形-W 1"
"试验运行: SSS 3"
"日期: 2025/3/12 12:11:57"
""
""
"横梁 ","力 ","视频引伸计变形 ","应变 ","时间 "
"mm","N","mm","mm/mm","sec"
"0.0025616","-5.99661","0.0001","2e-06","0.1"
"0.0432211","0.37411","-0.0606","-0.001212","1.3"
"0.0832286","7.69645","-0.0634","-0.001268","2.5"
"0.12319","15.2883","-0.0538","-0.001076","3.7"
"0.163197","23.0576","-0.0345","-0.00069","4.9"
"0.203251","30.7025","-0.0099","-0.000198","6.1"
"0.243259","37.9424","0.0137","0.000274","7.3"
"0.283173","45.534","0.0389","0.000778","8.5"
"0.323227","52.9591","0.0632","0.001264","9.7"
"0.363234","60.4505","0.0909","0.001818","10.9"
"0.403195","67.9605","0.1195","0.00239","12.1"
"0.443156","75.3253","0.1469","0.002938","13.3"
"0.48321","82.886","0.1749","0.003498","14.5"
"0.523218","90.3571","0.2018","0.004036","15.7"
"0.563179","97.6745","0.231","0.00462","16.9"
"0.603186","105.122","0.2594","0.005188","18.1"
"0.64324","112.31","0.2895","0.00579","19.3"
"0.683201","119.552","0.3165","0.00633","20.5"
"0.723209","126.766","0.3468","0.006936","21.7"
"0.763216","134.201","0.3754","0.007508","22.9"
"0.80327","141.649","0.4053","0.008106","24.1"
"0.843184","148.652","0.4345","0.00869","25.3"
"0.883238","155.764","0.4622","0.009244","26.5"
"0.923246","163.105","0.4931","0.009862","27.7"
"0.963207","170.222","0.5225","0.01045","28.9"
"1.00317","177.168","0.5527","0.011054","30.1"
"1.04322","184.269","0.5824","0.011648","31.3"
"1.08323","191.337","0.6091","0.012182","32.5"
"1.12319","198.54","0.6412","0.012824","33.7"
"1.1632","205.245","0.6697","0.013394","34.9"
"1.20321","212.348","0.7007","0.014014","36.1"
"1.24317","219.102","0.7289","0.014578","37.3"
"1.28317","226.09","0.7585","0.01517","38.5"
"1.32323","233.141","0.7888","0.015776","39.7"
"1.36319","239.837","0.819","0.01638","40.9"
"1.4032","246.7","0.8495","0.01699","42.1"
"1.4432","253.629","0.8772","0.017544","43.3"
"1.48321","260.124","0.9075","0.01815","44.5"
"1.52317","266.775","0.9353","0.018706","45.7"
"1.56323","273.64","0.9668","0.019336","46.9"
"1.60328","280.309","0.9941","0.019882","48.1"
"1.64324","286.881","1.0244","0.020488","49.3"
"1.6832","293.386","1.0554","0.021108","50.5"
"1.72326","299.913","1.0865","0.02173","51.7"
"1.76322","306.482","1.118","0.02236","52.9"
"1.80318","312.701","1.1456","0.022912","54.1"
"1.84323","319.289","1.1753","0.023506","55.3"
"1.88324","325.797","1.2072","0.024144","56.5"
"1.9232","332.037","1.2366","0.024732","57.7"
"1.96321","336.715","1.243","0.02486","58.9"
"2.00322","342.874","1.2715","0.02543","60.1"
"2.04322","349.25","1.3017","0.026034","61.3"
"2.08318","355.227","1.3319","0.026638","62.5"
"2.12319","361.301","1.3639","0.027278","63.7"
"2.16324","367.471","1.3914","0.027828","64.9"
"2.20321","373.768","1.4206","0.028412","66.1"
"2.24317","379.745","1.4511","0.029022","67.3"
"2.28322","385.679","1.4814","0.029628","68.5"
"2.32323","391.489","1.5135","0.03027","69.7"
"2.36319","397.481","1.5411","0.030822","70.9"
"2.40324","403.197","1.5713","0.031426","72.1"
"2.44325","393.475","1.5509","0.031018","73.3"
"2.48321","399.25","1.5798","0.031596","74.5"
"2.52322","404.645","1.606","0.03212","75.7"
"2.56323","410.512","1.6335","0.03267","76.9"
"2.60319","415.671","1.6648","0.033296","78.1"
"2.64319","421.533","1.6931","0.033862","79.3"
"2.68325","426.778","1.72","0.0344","80.5"
"2.72326","432.059","1.7462","0.034924","81.7"
"2.76317","437.515","1.7772","0.035544","82.9"
"2.80322","442.862","1.806","0.03612","84.1"
"2.84323","448.189","1.8341","0.036682","85.3"
"2.88319","453.216","1.8617","0.037234","86.5"
"2.92315","458.445","1.8904","0.037808","87.7"
"2.96325","463.829","1.9202","0.038404","88.9"
"3.00322","468.94","1.9485","0.03897","90.1"
"3.04318","473.948","1.9784","0.039568","91.3"
"3.08318","479.167","2.2899","0.045798","92.5"
"3.12324","484.102","2.3196","0.046392","93.7"
"3.1632","489.042","2.3476","0.046952","94.9"
"3.20316","494.08","2.3737","0.047474","96.1"
"3.24326","498.812","2.4036","0.048072","97.3"
"3.28327","503.755","2.4313","0.048626","98.5"
"3.32323","508.53","2.4592","0.049184","99.7"
"3.36324","512.603","2.4826","0.049652","100.9"
"3.40324","517.288","2.5122","0.050244","102.1"
"3.4432","521.973","2.5377","0.050754","103.3"
"3.48317","526.706","2.5639","0.051278","104.5"
"3.52327","518.949","2.6688","0.053376","105.7"
"3.56323","523.449","2.6943","0.053886","106.9"
"3.60319","528.055","2.7181","0.054362","108.1"
"3.64324","532.305","2.7454","0.054908","109.3"
"3.6832","536.812","2.7738","0.055476","110.5"
"3.72316","541.172","2.8009","0.056018","111.7"
"3.76317","545.338","2.8283","0.056566","112.9"
"3.80323","549.498","2.8516","0.057032","114.1"
"3.84319","553.735","2.8815","0.05763","115.3"
"3.88319","558.057","2.9096","0.058192","116.5"
"3.9232","562.157","2.9373","0.058746","117.7"
"3.96321","566.234","2.9655","0.05931","118.9"
"4.00317","570.335","2.991","0.05982","120.1"
"4.04322","574.169","3.0168","0.060336","121.3"
"4.08328","578.254","3.0447","0.060894","122.5"
"4.12324","582.075","3.0746","0.061492","123.7"
"4.1632","585.937","3.0979","0.061958","124.9"
"4.20325","589.635","3.1272","0.062544","126.1"
"4.24326","593.667","3.1538","0.063076","127.3"
"4.28318","597.187","3.1813","0.063626","128.5"
"4.32323","600.718","3.2105","0.06421","129.7"
"4.36324","604.334","3.2354","0.064708","130.9"
"4.4032","608.04","3.2631","0.065262","132.1"
"4.44316","611.519","3.2907","0.065814","133.3"
"4.48321","614.994","3.3173","0.066346","134.5"
"4.52322","618.605","3.347","0.06694","135.7"
"4.56313","621.844","3.3716","0.067432","136.9"
"4.60319","625.16","3.3986","0.067972","138.1"
"4.6432","628.303","3.4266","0.068532","139.3"
"4.6832","631.851","3.4542","0.069084","140.5"
"4.72316","634.903","3.4805","0.06961","141.7"
"4.76327","638.084","3.509","0.07018","142.9"
"4.80323","641.302","3.5355","0.07071","144.1"
"4.84319","644.484","3.564","0.07128","145.3"
"4.88324","647.284","3.5928","0.071856","146.5"
"4.92325","650.484","3.6166","0.072332","147.7"
"4.96321","653.339","3.6435","0.07287","148.9"
"5.00326","656.233","3.6704","0.073408","150.1"
"5.04322","659.212","3.6994","0.073988","151.3"
"5.08319","661.986","3.7242","0.074484","152.5"
"5.12315","665.039","3.75","0.075","153.7"
"5.16325","667.535","3.7763","0.075526","154.9"
"5.20325","670.184","3.8051","0.076102","156.1"
"5.24322","672.597","3.8331","0.076662","157.3"
"5.28322","675.549","3.8586","0.077172","158.5"
"5.32323","678.07","3.8875","0.07775","159.7"
"5.36319","680.75","3.9133","0.078266","160.9"
"5.40315","683.175","3.9414","0.078828","162.1"
"5.44325","685.752","3.9649","0.079298","163.3"
"5.48326","688.123","3.9934","0.079868","164.5"
"5.52317","690.366","4.0203","0.080406","165.7"
"5.56318","693.01","4.0466","0.080932","166.9"
"5.60324","695.293","4.0723","0.081446","168.1"
"5.6432","697.632","4.0996","0.081992","169.3"
"5.6832","699.622","4.1276","0.082552","170.5"
"5.72326","701.868","4.1537","0.083074","171.7"
"5.76327","704.147","4.1806","0.083612","172.9"
"5.80318","706.321","4.2086","0.084096","174.1"
"5.84323","708.251","4.2334","0.084668","175.3"
"5.88324","710.568","4.2601","0.085202","176.5"
"5.9232","712.783","4.2869","0.085738","177.7"
"5.96316","714.721","4.3144","0.086288","178.9"
"6.00326","716.71","4.3397","0.086794","180.1"
"6.04323","718.876","4.3661","0.087322","181.3"
"6.08319","720.381","4.3937","0.087874","182.5"
"6.12319","722.191","4.4216","0.088432","183.7"
"6.16325","724.076","4.4499","0.088998","184.9"
"6.20316","726.214","4.4726","0.089452","186.1"
"6.24317","728.093","4.4974","0.089948","187.3"
"6.28322","730.022","4.5281","0.090562","188.5"
"6.32318","731.417","4.5535","0.09107","189.7"
"6.36319","733.081","4.5781","0.091562","190.9"
"6.40325","734.937","4.6051","0.092102","192.1"
"6.44321","736.164","4.6309","0.092618","193.3"
"6.48317","738.196","4.6587","0.093174","194.5"
"6.52322","739.691","4.6839","0.093678","195.7"
"6.56328","741.192","4.7105","0.09421","196.9"
"6.60324","743.116","4.7365","0.09473","198.1"
"6.6432","744.284","4.7643","0.095286","199.3"
"6.6833","745.729","4.7903","0.095806","200.5"
"6.72321","747.312","4.8114","0.096228","201.7"
"6.76317","748.777","4.8392","0.096784","202.9"
"6.80318","750.071","4.8669","0.097338","204.1"
"6.84328","751.667","4.8935","0.09787","205.3"
"6.8832","752.817","4.9186","0.098372","206.5"
"6.92316","754.032","4.9428","0.098856","207.7"
"6.96321","755.253","4.9695","0.09939","208.9"
"7.00322","756.809","4.9959","0.099918","210.1"
"7.04313","757.878","5.0216","0.100432","211.3"
"7.08319","758.824","5.0456","0.100912","212.5"
"7.12324","760.165","5.0719","0.101438","213.7"
"7.1632","761.424","5.0966","0.101932","214.9"
"7.20316","762.494","5.1293","0.102586","216.1"
"7.24322","763.683","5.1569","0.103138","217.3"
"7.28322","764.936","5.188","0.10376","218.5"
"7.32318","765.853","5.2127","0.104254","219.7"
"7.36324","766.989","5.2405","0.10481","220.9"
"7.40325","767.838","5.2753","0.105506","222.1"
"7.44321","768.859","5.3061","0.106104","223.3"
"7.48321","769.749","5.3298","0.106596","224.5"
"7.52327","770.732","5.36","0.1072","225.7"
"7.56318","771.513","5.3908","0.107816","226.9"
"7.60319","772.355","5.4199","0.108398","228.1"
"7.64324","773.406","5.4476","0.108952","229.3"
"7.68321","774.276","5.4727","0.109454","230.5"
"7.72317","774.991","5.504","0.11008","231.7"
"7.76322","775.754","5.5264","0.110528","232.9"
"7.80323","776.594","5.5601","0.111202","234.1"
"7.84319","777.3","5.5873","0.111746","235.3"
"7.88315","777.968","5.6144","0.112288","236.5"
"7.92325","778.431","5.6455","0.11291","237.7"
"7.96326","779.084","5.6745","0.11349","238.9"
"8.00317","779.535","5.7012","0.114024","240.1"
"8.04318","780.35","5.7303","0.114606","241.3"
"8.08328","780.599","5.7578","0.115156","242.5"
"8.12319","781.133","5.7915","0.11583","243.7"
"8.13968","74.1215","5.7998","0.115996","244.191"