Folder: MFRPPO/experimental_data/tensile_specimen_test_data/tensile_test_data/20250312/original_data/SSS 10 03-12-25 16 18 12 下午

Note: README.md
# MFRPPO
Enhanced Mechanical Properties of 3D Printed Composites via Continuous Metal Fiber Reinforcement and Process Parameter Optimization

File: 数采：横梁, … - (实时值).csv
"文件路径: C:\Users\Lenovo\Desktop\Wayne\20250312\原始数据\SSS 10 03-12-25 16 18 12 下午\数采：横梁, … - (实时值).csv   "
"试验: 拉伸试验（UNIVER）      视频引伸计采集变形-W 1"
"试验运行: SSS 10"
"日期: 2025/3/12 14:01:02"
""
""
"横梁 ","力 ","视频引伸计变形 ","应变 ","时间 "
"mm","N","mm","mm/mm","sec"
"0.00260817","49.655","-0.0002","-4e-06","0.1"
"0.0965489","508.095","0.1446","0.002892","2.9"
"0.189931","942.312","0.2338","0.004676","5.7"
"0.283266","1333.32","0.3051","0.006102","8.5"
"0.376555","1655.68","0.3682","0.007364","11.3"
"0.469936","1913.31","0.4348","0.008696","14.1"
"0.563272","2120.3","0.4958","0.009916","16.9"
"0.65656","2285.74","0.5536","0.011072","19.7"
"0.749942","2418.05","0.6115","0.01223","22.5"
"0.843324","2524.35","0.6702","0.013404","25.3"
"0.936566","2608.29","0.7275","0.01455","28.1"
"1.0299","2678.76","0.7901","0.015802","30.9"
"1.12328","2737.2","0.848","0.01696","33.7"
"1.21657","2787.55","0.9076","0.018152","36.5"
"1.30991","2831.78","0.9657","0.019314","39.3"
"1.40329","2871.94","1.0261","0.020522","42.1"
"1.49658","2907.69","1.0853","0.021706","44.9"
"1.58987","2940.39","1.1442","0.022884","47.7"
"1.68334","2971.3","1.2059","0.024118","50.5"
"1.77658","2999.01","1.2665","0.02533","53.3"
"1.86992","3025.84","1.3256","0.026512","56.1"
"1.9633","3051.48","1.3862","0.027724","58.9"
"2.05659","3074.82","1.446","0.02892","61.7"
"2.14992","3097.89","1.5069","0.030138","64.5"
"2.24331","3120.44","1.5672","0.031344","67.3"
"2.33664","3141.37","1.6291","0.032582","70.1"
"2.42988","3161.59","1.6902","0.033804","72.9"
"2.52331","3181.79","1.7513","0.035026","75.7"
"2.6166","3200.84","1.8119","0.036238","78.5"
"2.70989","3219.48","1.8732","0.037464","81.3"
"2.80327","3238.04","1.936","0.03872","84.1"
"2.89661","3255.81","1.9973","0.039946","86.9"
"2.9899","3272.68","2.2757","0.045514","89.7"
"3.08328","3289.82","2.3377","0.046754","92.5"
"3.17661","3306.58","2.4032","0.048064","95.3"
"3.26985","3322.71","2.4703","0.049406","98.1"
"3.36333","3339.14","2.5336","0.050672","100.9"
"3.45662","3354.83","2.601","0.05202","103.7"
"3.54991","3369.69","2.6672","0.053344","106.5"
"3.64329","3384.89","2.7329","0.054658","109.3"
"3.73662","3399.71","2.796","0.05592","112.1"
"3.82991","3413.72","2.861","0.05722","114.9"
"3.92325","3428.48","2.9252","0.058504","117.7"
"4.01663","3441.93","2.9959","0.059918","120.5"
"4.10987","3455.22","3.0615","0.06123","123.3"
"4.20325","3468.54","3.1262","0.062524","126.1"
"4.29664","3481.72","3.1907","0.063814","128.9"
"4.38988","3494.4","3.2564","0.065128","131.7"
"4.48326","3506.99","3.3196","0.066392","134.5"
"4.57664","3519.54","3.3853","0.067706","137.3"
"4.66988","3530.63","3.4554","0.069108","140.1"
"4.76322","3542.67","3.5224","0.070448","142.9"
"4.85665","3554.47","3.5863","0.071726","145.7"
"4.94989","3565.3","3.6541","0.073082","148.5"
"5.04332","3576.67","3.7196","0.074392","151.3"
"5.13661","3587.44","3.7846","0.075692","154.1"
"5.22994","3597.9","3.8509","0.077018","156.9"
"5.32323","3607.91","3.9198","0.078396","159.7"
"5.41661","3617.81","3.9883","0.079766","162.5"
"5.50995","3627.32","4.0546","0.081092","165.3"
"5.60324","3636.81","4.1214","0.082428","168.1"
"5.69662","3646.24","4.1913","0.083826","170.9"
"5.78991","3655.26","4.2559","0.085118","173.7"
"5.88324","3664.51","4.325","0.0865","176.5"
"5.97662","3673.39","4.3954","0.087908","179.3"
"6.06996","3681.76","4.463","0.08926","182.1"
"6.16325","3689.82","4.5307","0.090614","184.9"
"6.25663","3697.96","4.5994","0.091988","187.7"
"6.34996","3706.03","4.6698","0.093396","190.5"
"6.44325","3714.06","4.736","0.09472","193.3"
"6.53664","3721.73","4.8048","0.096096","196.1"
"6.62997","3729.28","4.873","0.09746","198.9"
"6.72326","3736.16","4.9343","0.098686","201.7"
"6.81655","3743.18","5.0039","0.100078","204.5"
"6.90998","3750.49","5.0693","0.101386","207.3"
"7.00322","3756.37","5.138","0.10276","210.1"
"7.0966","3763.48","5.2026","0.104052","212.9"
"7.18998","3769.97","5.271","0.10542","215.7"
"7.28322","3775.71","5.3405","0.10681","218.5"
"7.37656","3781.94","5.4049","0.108098","221.3"
"7.46994","3788.15","5.4715","0.10943","224.1"
"7.56328","3794.19","5.5398","0.110796","226.9"
"7.65656","3799.82","5.6092","0.112184","229.7"
"7.74999","3805.93","5.6778","0.113556","232.5"
"7.84328","3811.18","5.7421","0.114842","235.3"
"7.93657","3817.17","5.8108","0.116216","238.1"
"8.03","3822.39","5.8797","0.117594","240.9"
"8.12329","3827.89","5.947","0.11894","243.7"
"8.21658","3832.84","6.016","0.12032","246.5"
"8.30996","3838.15","6.0754","0.121508","249.3"
"8.40325","3842.91","6.1451","0.122902","252.1"
"8.49654","3847.61","6.2081","0.124162","254.9"
"8.58996","3853","6.274","0.12548","257.7"
"8.68325","3857.33","6.3386","0.126772","260.5"
"8.77659","3862.07","6.4053","0.128106","263.3"
"8.86997","3866.62","6.4745","0.12949","266.1"
"8.96326","3871.17","6.5353","0.130706","268.9"
"9.05655","3875.58","6.6041","0.132082","271.7"
"9.14993","3880.24","6.6678","0.133356","274.5"
"9.24331","3884.65","6.7322","0.134644","277.3"
"9.33655","3888.17","6.7986","0.135972","280.1"
"9.42998","3892.36","6.8653","0.137306","282.9"
"9.52332","3895.88","6.9275","0.13855","285.7"
"9.61656","3899.44","6.9965","0.13993","288.5"
"9.70994","3902.89","7.0586","0.141172","291.3"
"9.80328","3906.6","7.1229","0.142458","294.1"
"9.89656","3910.3","7.1847","0.143694","296.9"
"9.9899","3914.19","7.2454","0.144908","299.7"
"10.0833","3918.34","7.3098","0.146196","302.5"
"10.1765","3921.7","7.3768","0.147536","305.3"
"10.27","3925.43","7.441","0.14882","308.1"
"10.3633","3928.1","7.5071","0.150142","310.9"
"10.4566","3931.15","7.5705","0.15141","313.7"
"10.5499","3933.97","7.6286","0.152572","316.5"
"10.6433","3937.67","7.6955","0.15391","319.3"
"10.7366","3940.66","7.7576","0.155152","322.1"
"10.8299","3943.47","7.8257","0.156514","324.9"
"10.9233","3946.78","7.8842","0.157684","327.7"
"11.0166","3949.67","7.949","0.15898","330.5"
"11.1099","3952.74","8.0077","0.160154","333.3"
"11.2033","3955.76","8.0767","0.161534","336.1"
"11.2966","3958.54","8.1382","0.162764","338.9"
"11.3899","3960.4","8.1978","0.163956","341.7"
"11.4833","3963.56","8.2654","0.165308","344.5"
"11.5766","3966.32","8.3241","0.166482","347.3"
"11.6699","3969.44","8.3902","0.167804","350.1"
"11.7633","3972.56","8.4537","0.169074","352.9"
"11.8566","3974.93","8.5094","0.170188","355.7"
"11.9499","3977.86","8.5753","0.171506","358.5"
"12.0433","3980.13","8.6396","0.172792","361.3"
"12.1367","3983.46","8.7046","0.174092","364.1"
"12.2299","3985.79","8.7635","0.17527","366.9"
"12.3233","3988.89","8.8214","0.176502","369.7"
"12.4166","3991.44","8.8855","0.17771","372.5"
"12.5099","3993.24","8.9523","0.179046","375.3"
"12.6032","3996.39","9.0084","0.180168","378.1"
"12.6966","3998.58","9.0725","0.18145","380.9"
"12.7899","4000.88","9.1264","0.182528","383.7"
"12.8832","4003.59","9.19","0.1838","386.5"
"12.9767","4006.24","9.2468","0.184936","389.3"
"13.0699","4008.25","9.3075","0.18615","392.1"
"13.1632","4009.33","9.3772","0.187544","394.9"
"13.2566","4011.77","9.4312","0.188624","397.7"
"13.3499","4013.86","9.4867","0.189734","400.5"
"13.4433","4016.24","9.5549","0.191098","403.3"
"13.5366","4018.54","9.6148","0.192296","406.1"
"13.6299","4019.69","9.6752","0.193504","408.9"
"13.7232","4021.99","9.7358","0.194716","411.7"
"13.8167","4024.87","9.7951","0.195902","414.5"
"13.9099","4026.61","9.8524","0.197048","417.3"
"14.0033","4028.55","9.9048","0.198096","420.1"
"14.0966","4029.86","9.9673","0.199346","422.9"
"14.1899","4031.38","10.0291","0.200582","425.7"
"14.2832","4033.51","10.0894","0.201788","428.5"
"14.3766","4036.09","10.1511","0.203022","431.3"
"14.4699","4037.76","10.2028","0.204056","434.1"
"14.5632","4039.54","10.2589","0.205178","436.9"
"14.6567","4041.79","10.3151","0.206302","439.7"
"14.7499","4043.72","10.3765","0.20753","442.5"
"14.8432","4045.86","10.4363","0.208726","445.3"
"14.9367","4048.1","10.4882","0.209764","448.1"
"15.03","4049.84","10.5444","0.210888","450.9"
"15.1232","4051.4","10.6108","0.212216","453.7"
"15.2166","4053.58","10.6664","0.213328","456.5"
"15.31","4055.42","10.7275","0.21455","459.3"
"15.4032","4056.62","10.7745","0.21549","462.1"
"15.4966","4059.02","10.8383","0.216766","464.9"
"15.59","4060.33","10.8969","0.217938","467.7"
"15.6833","4062.06","10.96","0.2192","470.5"
"15.7766","4064.06","11.0072","0.220144","473.3"
"15.8699","4065.84","11.0672","0.221344","476.1"
"15.9632","4067.72","11.1275","0.22255","478.9"
"16.0566","4069.39","11.1911","0.223822","481.7"
"16.15","4070.86","11.236","0.22472","484.5"
"16.2432","4072.44","11.2885","0.22577","487.3"
"16.3366","4074.41","11.357","0.22714","490.1"
"16.4299","4075.04","11.4099","0.228198","492.9"
"16.5233","4076.54","11.4557","0.229114","495.7"
"16.6166","4078.05","11.5143","0.230286","498.5"
"16.7099","4079.43","11.5766","0.231532","501.3"
"16.8033","4080.7","11.6282","0.232564","504.1"
"16.8966","4082.26","11.6768","0.233536","506.9"
"16.99","4083.47","11.7333","0.234666","509.7"
"17.0832","4084.97","11.7887","0.235774","512.5"
"17.1766","4086.04","11.8416","0.236832","515.3"
"17.27","4086.58","11.907","0.23814","518.1"
"17.3633","4088.44","11.952","0.23904","520.9"
"17.4565","4089.51","12.0076","0.240152","523.7"
"17.55","4090.11","12.0478","0.240956","526.5"
"17.6433","4091.34","12.1055","0.24211","529.3"
"17.7365","4092.38","12.1623","0.243246","532.1"
"17.8299","4093.66","12.2233","0.244466","534.9"
"17.9233","4094.35","12.2592","0.245184","537.7"
"18.0166","4093.99","12.3144","0.246288","540.5"
"18.1099","4095.08","12.3628","0.247256","543.3"
"18.2034","4096.63","12.4279","0.248558","546.1"
"18.2966","4095.23","12.4745","0.249478","548.9"
"18.3899","4096.48","12.5237","0.250474","551.7"
"18.4833","4097.17","12.5707","0.251414","554.5"
"18.5766","4095.38","12.6037","0.252074","557.3"
"18.6699","4096.56","12.6621","0.253242","560.1"
"18.7633","4096.88","12.694","0.25388","562.9"
"18.8566","4094.88","12.7328","0.254656","565.7"
"18.9499","4094.45","12.7738","0.255476","568.5"
"19.0433","4089.8","12.8154","0.256308","571.3"
"19.1366","4079.29","12.8528","0.257056","574.1"
"19.23","2950.53","12.6664","0.253328","576.9"
"19.3233","2904.52","12.6582","0.253164","579.7"
"19.4166","2387.89","12.5495","0.25099","582.5"
"19.5099","2132.15","12.4963","0.249926","585.3"
"19.5303","-169.836","12.4869","0.249738","585.905"