Folder: MFRPPO/experimental_data/tensile_specimen_test_data/tensile_test_data/20250312/original_data/SSS 4 03-12-25 16 18 12 下午

Note: README.md
# MFRPPO
Enhanced Mechanical Properties of 3D Printed Composites via Continuous Metal Fiber Reinforcement and Process Parameter Optimization

File: 数采：横梁, … - (实时值).csv
"文件路径: C:\Users\Lenovo\Desktop\Wayne\20250312\原始数据\SSS 4 03-12-25 16 18 12 下午\数采：横梁, … - (实时值).csv   "
"试验: 拉伸试验（UNIVER）      视频引伸计采集变形-W 1"
"试验运行: SSS 4"
"日期: 2025/3/12 12:23:57"
""
""
"横梁 ","力 ","视频引伸计变形 ","应变 ","时间 "
"mm","N","mm","mm/mm","sec"
"0.0023753","-4.26462","0.0002","4e-06","0.1"
"0.0832286","9.2056","0.0181","0.000362","2.5"
"0.16329","23.2683","0.0633","0.001266","4.9"
"0.243259","36.9358","0.1157","0.002314","7.3"
"0.32332","50.3444","0.1674","0.003348","9.7"
"0.403242","63.5328","0.2224","0.004448","12.1"
"0.483257","76.7855","0.2747","0.005494","14.5"
"0.563272","90.0096","0.3305","0.00661","16.9"
"0.64324","103.099","0.3844","0.007688","19.3"
"0.723302","116.135","0.4409","0.008818","21.7"
"0.803223","129.045","0.4963","0.009926","24.1"
"0.883238","141.773","0.5507","0.011014","26.5"
"0.9633","154.569","0.6056","0.012112","28.9"
"1.04322","166.967","0.6594","0.013188","31.3"
"1.12333","179.661","0.7168","0.014336","33.7"
"1.20325","192.056","0.7708","0.015416","36.1"
"1.28327","204.784","0.8274","0.016548","38.5"
"1.36324","216.595","0.8812","0.017624","40.9"
"1.44325","228.781","0.9379","0.018758","43.3"
"1.52326","240.585","0.9935","0.01987","45.7"
"1.60319","252.828","1.047","0.02094","48.1"
"1.68325","264.578","1.103","0.02206","50.5"
"1.76322","276.365","1.1574","0.023148","52.9"
"1.84328","288.021","1.2142","0.024284","55.3"
"1.92329","299.456","1.267","0.02534","57.7"
"2.00326","311.024","1.3245","0.02649","60.1"
"2.08332","322.196","1.3782","0.027564","62.5"
"2.16324","333.377","1.4339","0.028678","64.9"
"2.24326","344.613","1.492","0.02984","67.3"
"2.32327","355.524","1.5455","0.03091","69.7"
"2.40324","366.309","1.602","0.03204","72.1"
"2.48326","377.067","1.656","0.03312","74.5"
"2.56323","387.391","1.712","0.03424","76.9"
"2.64333","397.996","1.7665","0.03533","79.3"
"2.72321","408.264","1.8229","0.036458","81.7"
"2.80332","418.54","1.88","0.0376","84.1"
"2.88329","428.556","1.9344","0.038688","86.5"
"2.96325","438.288","1.9916","0.039832","88.9"
"3.04327","447.972","2.5585","0.05117","91.3"
"3.12324","457.662","2.6387","0.052774","93.7"
"3.20325","466.963","2.7152","0.054304","96.1"
"3.28322","476.655","2.7894","0.055788","98.5"
"3.36324","485.55","2.8688","0.057376","100.9"
"3.4433","494.913","2.9427","0.058854","103.3"
"3.52322","503.828","3.0218","0.060436","105.7"
"3.60333","512.463","3.0846","0.061692","108.1"
"3.68325","520.817","3.151","0.06302","110.5"
"3.76331","529.426","3.2117","0.064234","112.9"
"3.84323","537.66","3.2788","0.065576","115.3"
"3.92325","545.812","3.3414","0.066828","117.7"
"4.00326","553.825","3.4114","0.068228","120.1"
"4.08318","561.765","3.474","0.06948","122.5"
"4.16325","569.247","3.5347","0.070694","124.9"
"4.24321","576.899","3.6038","0.072076","127.3"
"4.32328","584.207","3.6683","0.073366","129.7"
"4.40324","591.313","3.7363","0.074726","132.1"
"4.48326","598.527","3.7969","0.075938","134.5"
"4.56327","605.434","3.8638","0.077276","136.9"
"4.6432","612.082","3.9308","0.078616","139.3"
"4.7233","618.713","3.9908","0.079816","141.7"
"4.80327","625.159","4.0666","0.081332","144.1"
"4.88319","631.473","4.1243","0.082486","146.5"
"4.96326","637.591","4.1907","0.083814","148.9"
"5.04322","643.826","4.2519","0.085038","151.3"
"5.12329","649.743","4.3155","0.08631","153.7"
"5.20321","655.285","4.3831","0.087662","156.1"
"5.28332","660.837","4.4421","0.088842","158.5"
"5.36328","666.321","4.5093","0.090186","160.9"
"5.44325","671.838","4.5696","0.091392","163.3"
"5.52327","676.887","4.6377","0.092754","165.7"
"5.60324","682.004","4.7026","0.094052","168.1"
"5.68325","686.778","4.7687","0.095374","170.5"
"5.76322","691.567","4.8265","0.09653","172.9"
"5.84323","696.279","4.889","0.09778","175.3"
"5.9233","700.883","4.9509","0.099018","177.7"
"6.00322","705.126","5.0147","0.100294","180.1"
"6.08333","709.793","5.0751","0.101502","182.5"
"6.16325","713.701","5.1357","0.102714","184.9"
"6.24326","717.751","5.1983","0.103966","187.3"
"6.32323","721.685","5.2636","0.105272","189.7"
"6.40325","725.564","5.3252","0.106504","192.1"
"6.48326","729.378","5.3828","0.107656","194.5"
"6.56318","732.803","5.4517","0.109034","196.9"
"6.64329","736.369","5.5145","0.11029","199.3"
"6.72321","739.776","5.5794","0.111588","201.7"
"6.80327","743.138","5.6477","0.112954","204.1"
"6.88329","746.119","5.7073","0.114146","206.5"
"6.96326","749.639","5.7783","0.115566","208.9"
"7.04332","752.315","5.8386","0.116772","211.3"
"7.12324","755.38","5.9102","0.118204","213.7"
"7.2033","758.015","5.9778","0.119556","216.1"
"7.28327","760.84","6.0451","0.120902","218.5"
"7.36324","763.385","6.112","0.12224","220.9"
"7.44325","765.894","6.1768","0.123536","223.3"
"7.52322","768.49","6.2499","0.124998","225.7"
"7.60328","770.854","6.3158","0.126316","228.1"
"7.68321","773.083","6.3831","0.127662","230.5"
"7.76331","775.34","6.4525","0.12905","232.9"
"7.84328","777.906","6.518","0.13036","235.3"
"7.92325","779.696","6.5871","0.131742","237.7"
"8.00327","781.692","6.6567","0.133134","240.1"
"8.08323","783.712","6.7236","0.134472","242.5"
"8.16325","785.716","6.7917","0.135834","244.9"
"8.24322","787.541","6.8622","0.137244","247.3"
"8.32323","789.226","6.927","0.13854","249.7"
"8.40329","790.971","6.9994","0.139988","252.1"
"8.48322","792.625","7.0683","0.141366","254.5"
"8.56332","794.213","7.1353","0.142706","256.9"
"8.64325","795.657","7.2057","0.144114","259.3"
"8.72331","797.322","7.2755","0.14551","261.7"
"8.80323","798.596","7.3433","0.146866","264.1"
"8.88324","800.122","7.4166","0.148332","266.5"
"8.96326","801.173","7.4857","0.149714","268.9"
"9.04318","802.407","7.5499","0.150998","271.3"
"9.12324","803.815","7.6226","0.152452","273.7"
"9.20321","805.039","7.6893","0.153786","276.1"
"9.28327","806.186","7.7576","0.155152","278.5"
"9.36329","807.068","7.8328","0.156656","280.9"
"9.44326","808.106","7.9019","0.158038","283.3"
"9.52327","809.057","7.9771","0.159542","285.7"
"9.60319","809.935","8.0402","0.160804","288.1"
"9.6833","810.6","8.1168","0.162336","290.5"
"9.76327","811.615","8.1806","0.163612","292.9"
"9.84319","812.362","8.2589","0.165178","295.3"
"9.9233","813.114","8.3355","0.16671","297.7"
"10.0032","813.764","8.4088","0.168176","300.1"
"10.0833","814.345","8.485","0.1697","302.5"
"10.1633","814.852","8.5637","0.171274","304.9"
"10.2433","815.503","8.6464","0.172928","307.3"
"10.3233","816.076","8.7222","0.174444","309.7"
"10.4032","816.499","8.8137","0.176274","312.1"
"10.4833","816.779","8.8858","0.177716","314.5"
"10.5632","817.363","8.9889","0.179778","316.9"
"10.6432","817.271","9.0658","0.181316","319.3"
"10.7232","817.886","9.146","0.18292","321.7"
"10.8032","817.862","9.2306","0.184612","324.1"
"10.8833","818.493","9.3116","0.186232","326.5"
"10.9632","818.436","9.3895","0.18779","328.9"
"11.0433","818.662","9.4709","0.189418","331.3"
"11.1232","818.672","9.5438","0.190876","333.7"
"11.2033","818.99","9.6277","0.192554","336.1"
"11.2832","818.962","9.7003","0.194006","338.5"
"11.3633","818.807","9.777","0.19554","340.9"
"11.4433","818.909","9.8519","0.197038","343.3"
"11.5232","818.662","9.9322","0.198644","345.7"
"11.6033","818.7","10.0064","0.200128","348.1"
"11.6832","818.748","10.0891","0.201782","350.5"
"11.7633","818.49","10.1716","0.203432","352.9"
"11.8433","818.203","10.2495","0.20499","355.3"
"11.9233","817.96","10.326","0.20652","357.7"
"12.0033","817.976","10.4039","0.208078","360.1"
"12.0832","817.475","10.4898","0.209796","362.5"
"12.1633","816.86","10.5662","0.211324","364.9"
"12.2433","816.729","10.6488","0.212976","367.3"
"12.3232","816.395","10.7274","0.214548","369.7"
"12.4033","816.109","10.8139","0.216278","372.1"
"12.4832","815.55","10.8988","0.217976","374.5"
"12.5633","815.038","10.9813","0.219626","376.9"
"12.6432","814.326","11.0703","0.221406","379.3"
"12.7233","813.789","11.1531","0.223062","381.7"
"12.8032","813.329","11.2476","0.224952","384.1"
"12.8832","812.492","11.3261","0.226522","386.5"
"12.9633","812.054","11.4209","0.228418","388.9"
"13.0432","811.113","11.5138","0.230276","391.3"
"13.1232","810.27","11.605","0.2321","393.7"
"13.2033","809.353","11.6995","0.23399","396.1"
"13.2832","808.628","11.7885","0.23577","398.5"
"13.3633","807.381","11.8919","0.237838","400.9"
"13.4433","806.098","11.9857","0.239714","403.3"
"13.5233","805.225","12.0842","0.241684","405.7"
"13.6032","803.85","12.1776","0.243552","408.1"
"13.6833","802.166","12.2875","0.24575","410.5"
"13.7633","800.78","12.3953","0.247906","412.9"
"13.8432","798.893","12.4948","0.249896","415.3"
"13.9233","796.342","12.6043","0.252086","417.7"
"14.0032","793.575","12.7235","0.25447","420.1"
"14.0833","789.408","12.8602","0.257204","422.5"
"14.1632","782.44","13.0301","0.260602","424.9"
"14.2433","768.521","13.3016","0.266032","427.3"
"14.3233","743.219","13.7363","0.274726","429.7"
"14.4033","722.475","14.1455","0.28291","432.1"
"14.4833","709.653","14.4784","0.289568","434.5"
"14.5632","702.127","14.7381","0.294762","436.9"
"14.6433","697.646","14.9683","0.299366","439.3"
"14.7233","695.259","15.168","0.30336","441.7"
"14.8032","693.468","15.3611","0.307222","444.1"
"14.8833","692.623","15.545","0.3109","446.5"
"14.9632","692.095","15.7139","0.314278","448.9"
"15.0433","691.326","15.8869","0.317738","451.3"
"15.1232","691.183","16.0515","0.32103","453.7"
"15.2033","691.187","16.218","0.32436","456.1"
"15.2833","690.934","16.3842","0.327684","458.5"
"15.3632","690.382","16.5508","0.331016","460.9"
"15.4433","689.915","16.7227","0.334454","463.3"
"15.5232","689.466","16.8832","0.337664","465.7"
"15.6033","688.842","17.0634","0.341268","468.1"
"15.6832","688.169","17.2322","0.344644","470.5"
"15.7632","687.284","17.4076","0.348152","472.9"
"15.8433","686.631","17.578","0.35156","475.3"
"15.9232","685.517","17.7557","0.355114","477.7"
"16.0033","684.351","17.9271","0.358542","480.1"
"16.0832","683.313","18.1092","0.362184","482.5"
"16.1633","682.333","18.2904","0.365808","484.9"
"16.2432","681.284","18.4654","0.369308","487.3"
"16.3232","680.185","18.6487","0.372974","489.7"
"16.4033","679.384","18.8172","0.376344","492.1"
"16.4166","679.137","18.8515","0.37703","492.5"