Folder: MFRPPO/experimental_data/tensile_specimen_test_data/tensile_test_data/20250312/original_data/SSS 1 03-12-25 16 18 11 下午

Note: README.md
# MFRPPO
Enhanced Mechanical Properties of 3D Printed Composites via Continuous Metal Fiber Reinforcement and Process Parameter Optimization

File: 数采：横梁, … - (实时值).csv
"文件路径: C:\Users\Lenovo\Desktop\Wayne\20250312\原始数据\SSS 1 03-12-25 16 18 11 下午\数采：横梁, … - (实时值).csv   "
"试验: 拉伸试验（UNIVER）      视频引伸计采集变形-W 1"
"试验运行: SSS 1"
"日期: 2025/3/12 11:09:03"
""
""
"横梁 ","力 ","视频引伸计变形 ","应变 ","时间 "
"mm","N","mm","mm/mm","sec"
"0.00679987","-6.91156","-0.0009","-1.8e-05","0.245"
"0.0638536","-4.58919","-0.1633","-0.003266","1.945"
"0.120442","4.79711","-0.2519","-0.005038","3.645"
"0.177123","15.7694","-0.2384","-0.004768","5.345"
"0.233804","26.4519","-0.2077","-0.004154","7.045"
"0.290485","37.3188","-0.1707","-0.003414","8.745"
"0.347166","48.2954","-0.1296","-0.002592","10.445"
"0.403847","59.0601","-0.0889","-0.001778","12.145"
"0.460528","69.6866","-0.0468","-0.000936","13.845"
"0.51721","80.2752","-0.006","-0.00012","15.545"
"0.573844","90.9115","0.0385","0.00077","17.245"
"0.630479","101.484","0.0812","0.001624","18.945"
"0.68716","111.738","0.123","0.00246","20.645"
"0.743794","122.337","0.1666","0.003332","22.345"
"0.800476","132.824","0.2125","0.00425","24.045"
"0.857157","143.064","0.256","0.00512","25.745"
"0.913791","153.217","0.2978","0.005956","27.445"
"0.970472","163.483","0.343","0.006792","29.145"
"1.0272","173.788","0.3856","0.007712","30.845"
"1.08388","183.852","0.4298","0.008596","32.545"
"1.14052","193.928","0.472","0.00944","34.245"
"1.1972","203.788","0.5179","0.010358","35.945"
"1.25383","213.809","0.5613","0.011226","37.645"
"1.31051","223.466","0.6057","0.012114","39.345"
"1.36715","233.466","0.6482","0.012964","41.045"
"1.42378","243.131","0.6951","0.013902","42.745"
"1.48046","251.657","0.7173","0.014346","44.445"
"1.53714","261.244","0.7609","0.015218","46.145"
"1.59387","271.019","0.8026","0.016052","47.845"
"1.65051","280.503","0.8489","0.016978","49.545"
"1.70719","289.461","0.8862","0.017724","51.245"
"1.76387","298.382","0.9291","0.018582","52.945"
"1.82055","302.66","0.8888","0.017776","54.645"
"1.87718","311.562","0.9326","0.018652","56.345"
"1.93382","320.289","0.9741","0.019482","58.045"
"1.9905","329.482","1.0142","0.020284","59.745"
"2.04713","338.481","1.0582","0.021164","61.445"
"2.10382","347.168","1.1007","0.022014","63.145"
"2.1605","356.182","1.1403","0.022806","64.845"
"2.21718","364.801","1.1857","0.023714","66.545"
"2.27381","373.247","1.2263","0.024526","68.245"
"2.33054","381.861","1.2679","0.025358","69.945"
"2.38722","390.289","1.3095","0.02619","71.645"
"2.44386","398.493","1.3542","0.027084","73.345"
"2.50054","406.625","1.3923","0.027846","75.045"
"2.55717","414.86","1.4343","0.028686","76.745"
"2.61381","422.766","1.4774","0.029548","78.445"
"2.67049","430.649","1.5219","0.030438","80.145"
"2.72712","438.109","1.5453","0.030906","81.845"
"2.7838","445.74","1.5865","0.03173","83.545"
"2.84048","453.634","1.6279","0.032558","85.245"
"2.89721","461.209","1.672","0.03344","86.945"
"2.95385","459.758","1.7117","0.034234","88.645"
"3.01053","467.372","1.749","0.03498","90.345"
"3.06716","474.425","1.7916","0.035832","92.045"
"3.12389","481.767","1.8329","0.036658","93.745"
"3.18052","488.796","1.8727","0.037454","95.445"
"3.23716","496.025","1.913","0.03826","97.145"
"3.29379","503.002","1.9563","0.039126","98.845"
"3.35052","509.908","1.9984","0.039968","100.545"
"3.40716","516.699","2.9757","0.059514","102.245"
"3.46384","523.335","3.0184","0.060368","103.945"
"3.52047","530.27","3.0562","0.061124","105.645"
"3.5772","536.525","3.0958","0.061916","107.345"
"3.63388","543.034","3.1345","0.06269","109.045"
"3.69061","549.697","3.1777","0.063554","110.745"
"3.7472","555.554","3.2156","0.064312","112.445"
"3.80388","561.942","3.2566","0.065132","114.145"
"3.86047","568.114","3.2934","0.065868","115.845"
"3.91719","573.905","3.3359","0.066718","117.545"
"3.97383","579.619","3.3757","0.067514","119.245"
"4.03046","585.401","3.4143","0.068286","120.945"
"4.08714","591.103","3.4559","0.069118","122.645"
"4.14382","596.899","3.4967","0.069934","124.345"
"4.20055","602.272","3.5325","0.07065","126.045"
"4.25719","607.657","3.5727","0.071454","127.745"
"4.31387","613.184","3.6136","0.072272","129.445"
"4.3705","618.388","3.6528","0.073056","131.145"
"4.42718","623.348","3.6916","0.073832","132.845"
"4.48387","628.621","3.7302","0.074604","134.545"
"4.54045","633.49","3.7718","0.075436","136.245"
"4.59713","638.474","3.8089","0.076178","137.945"
"4.65377","643.039","3.8523","0.077046","139.645"
"4.7105","647.797","3.8899","0.077798","141.345"
"4.76713","652.545","3.934","0.07868","143.045"
"4.82381","656.982","3.9704","0.079408","144.745"
"4.88049","661.593","4.0092","0.080184","146.445"
"4.93722","665.716","4.051","0.08102","148.145"
"4.9939","669.942","4.0907","0.081814","149.845"
"5.05049","673.726","4.1286","0.082572","151.545"
"5.10717","677.953","4.1666","0.083332","153.245"
"5.16381","682.097","4.2085","0.08417","154.945"
"5.22049","686.081","4.2461","0.084922","156.645"
"5.27712","689.779","4.2852","0.085704","158.345"
"5.3338","693.717","4.3268","0.086536","160.045"
"5.39044","697.56","4.3663","0.087326","161.745"
"5.44721","701.091","4.403","0.08806","163.445"
"5.50385","704.798","4.4414","0.088828","165.145"
"5.56053","708.19","4.481","0.08962","166.845"
"5.61716","711.552","4.5172","0.090344","168.545"
"5.67384","714.797","4.5586","0.091172","170.245"
"5.73052","717.906","4.5952","0.091904","171.945"
"5.78716","721.164","4.6361","0.092722","173.645"
"5.84379","724.278","4.6749","0.093498","175.345"
"5.90047","727.411","4.7135","0.09427","177.045"
"5.95716","730.396","4.7529","0.095058","178.745"
"6.01384","733.08","4.7925","0.09585","180.445"
"6.07052","736.116","4.8318","0.096636","182.145"
"6.12715","738.819","4.865","0.0973","183.845"
"6.18388","741.308","4.9077","0.098154","185.545"
"6.24056","743.645","4.9447","0.098894","187.245"
"6.2972","746.346","4.9824","0.099648","188.945"
"6.35383","748.563","5.0197","0.100394","190.645"
"6.41051","751.215","5.0617","0.101234","192.345"
"6.46715","753.815","5.0979","0.101958","194.045"
"6.52383","756.049","5.1371","0.102742","195.745"
"6.58046","758.285","5.1741","0.103482","197.445"
"6.63714","760.49","5.2128","0.104256","199.145"
"6.69382","762.532","5.2517","0.105034","200.845"
"6.7505","764.644","5.2875","0.10575","202.545"
"6.80719","766.767","5.3267","0.106534","204.245"
"6.86387","768.911","5.3641","0.107282","205.945"
"6.9205","770.549","5.4004","0.108008","207.645"
"6.97718","772.63","5.4396","0.108792","209.345"
"7.03382","774.613","5.4768","0.109536","211.045"
"7.0905","776.201","5.5142","0.110284","212.745"
"7.14709","777.612","5.5524","0.111048","214.445"
"7.20381","779.3","5.5892","0.111784","216.145"
"7.26045","781.094","5.6248","0.112496","217.845"
"7.31722","782.53","5.6638","0.113276","219.545"
"7.37381","784.327","5.6982","0.113964","221.245"
"7.43054","785.773","5.7353","0.114706","222.945"
"7.48717","787.081","5.7723","0.115446","224.645"
"7.5439","788.671","5.8098","0.116196","226.345"
"7.60054","790.085","5.8443","0.116886","228.045"
"7.65717","791.708","5.8818","0.117636","229.745"
"7.7138","792.639","5.9182","0.118364","231.445"
"7.77049","794.106","5.9542","0.119084","233.145"
"7.82717","795.187","5.9925","0.11985","234.845"
"7.8838","796.481","6.0295","0.12059","236.545"
"7.94048","797.747","6.061","0.12122","238.245"
"7.99716","798.632","6.0954","0.121908","239.945"
"8.05389","799.936","6.1336","0.122672","241.645"
"8.11057","800.958","6.1701","0.123402","243.345"
"8.16721","801.99","6.2013","0.124026","245.045"
"8.22384","803.054","6.2405","0.12481","246.745"
"8.28052","804.086","6.2762","0.125524","248.445"
"8.33716","804.75","6.3119","0.126238","250.145"
"8.39384","805.766","6.3469","0.126938","251.845"
"8.45047","806.769","6.3822","0.127644","253.545"
"8.50711","807.386","6.415","0.1283","255.245"
"8.56379","808.329","6.4512","0.129024","256.945"
"8.62052","808.952","6.4837","0.129674","258.645"
"8.6772","809.612","6.518","0.13036","260.345"
"8.73388","810.342","6.5548","0.131096","262.045"
"8.79051","811.207","6.5861","0.131722","263.745"
"8.84724","811.557","6.622","0.132388","265.445"
"8.90388","812.219","6.6545","0.13309","267.145"
"8.96051","812.616","6.6915","0.13383","268.845"
"9.01715","813.116","6.7217","0.134434","270.545"
"9.07383","813.852","6.7575","0.13515","272.245"
"9.13046","814.3","6.7907","0.135814","273.945"
"9.18719","814.628","6.8223","0.136446","275.645"
"9.24382","815.33","6.8536","0.137072","277.345"
"9.30055","815.61","6.8897","0.137794","279.045"
"9.35719","816.071","6.9199","0.138398","280.745"
"9.41391","816.469","6.9514","0.139028","282.445"
"9.4705","816.615","6.9834","0.139668","284.145"
"9.52723","817.095","7.0187","0.140374","285.845"
"9.58382","817.286","7.0497","0.140994","287.545"
"9.6405","817.812","7.0806","0.141612","289.245"
"9.69713","817.8","7.1293","0.142586","290.945"
"9.75381","817.991","7.1841","0.143682","292.645"
"9.8105","818.233","7.2374","0.144748","294.345"
"9.86713","818.111","7.2852","0.145704","296.045"
"9.92386","818.402","7.341","0.14682","297.745"
"9.98049","818.596","7.3944","0.147888","299.445"
"10.0372","818.459","7.4451","0.148902","301.145"
"10.0939","818.398","7.4996","0.149992","302.845"
"10.1505","818.532","7.5555","0.15111","304.545"
"10.2072","818.81","7.6021","0.152042","306.245"
"10.2638","818.467","7.6582","0.153164","307.945"
"10.3204","818.241","7.7139","0.154278","309.645"
"10.3771","818.248","7.7659","0.155318","311.345"
"10.4338","818.319","7.8161","0.156322","313.045"
"10.4905","817.914","7.8673","0.157346","314.745"
"10.5472","817.912","7.9248","0.158496","316.445"
"10.6038","817.5625","7.9781","0.159562","318.145"
"10.6605","817.357","8.0319","0.160638","319.845"
"10.7172","817.24","8.0878","0.161756","321.545"
"10.7738","816.856","8.1388","0.162776","323.245"
"10.8305","816.516","8.1941","0.163882","324.945"
"10.8872","816.106","8.2476","0.164952","326.645"
"10.909","22.7873","8.2673","0.165346","327.295"