Folder: MFRPPO/experimental_data/tensile_specimen_test_data/tensile_test_data/20250312/original_data/SSS 14 03-12-25 16 18 12 下午

Note: README.md
# MFRPPO
Enhanced Mechanical Properties of 3D Printed Composites via Continuous Metal Fiber Reinforcement and Process Parameter Optimization

File: 数采：横梁, … - (实时值).csv
"文件路径: C:\Users\Lenovo\Desktop\Wayne\20250312\原始数据\SSS 14 03-12-25 16 18 12 下午\数采：横梁, … - (实时值).csv   "
"试验: 拉伸试验（UNIVER）      视频引伸计采集变形-W 1"
"试验运行: SSS 14"
"日期: 2025/3/12 15:21:55"
""
""
"横梁 ","力 ","视频引伸计变形 ","应变 ","时间 "
"mm","N","mm","mm/mm","sec"
"0.00251502","-168.941","-0.0005","-1e-05","0.1"
"0.129943","575.381","0.1455","0.00291","3.9"
"0.256625","1194.62","0.2197","0.004394","7.7"
"0.383261","1601.31","0.2693","0.005386","11.5"
"0.509944","1799.3","0.2997","0.005994","15.3"
"0.636673","1989.59","0.3309","0.006618","19.1"
"0.763309","2172.27","0.3624","0.007248","22.9"
"0.889992","2348.16","0.3961","0.007922","26.7"
"1.01667","2514.3","0.4351","0.008702","30.5"
"1.14331","2670.86","0.4766","0.009532","34.3"
"1.26995","2813.66","0.5199","0.010398","38.1"
"1.39658","2943.19","0.5684","0.011368","41.9"
"1.52326","3056.32","0.6221","0.012442","45.7"
"1.6499","3156.18","0.6805","0.01361","49.5"
"1.77663","3243.13","0.7429","0.014858","53.3"
"1.90327","3319.3","0.8114","0.016228","57.1"
"2.02995","3371.43","0.8854","0.017708","60.9"
"2.15668","3439.65","0.9586","0.019172","64.7"
"2.28331","3479.95","1.0543","0.021086","68.5"
"2.40995","3535.99","1.1316","0.022632","72.3"
"2.53663","3582","1.2117","0.024234","76.1"
"2.66327","3623.08","1.2939","0.025878","79.9"
"2.7899","3662.26","1.3777","0.027554","83.7"
"2.91659","3697.65","1.4583","0.029166","87.5"
"3.04322","3733.02","1.5429","0.030858","91.3"
"3.16991","3766.41","1.6296","0.032592","95.1"
"3.29659","3798.53","1.7133","0.034266","98.9"
"3.42327","3828.28","1.7983","0.035966","102.7"
"3.54991","3858.26","1.8837","0.037674","106.5"
"3.67659","3886.39","1.9691","0.039382","110.3"
"3.80332","3913.77","2.3785","0.04757","114.1"
"3.92995","3940.53","2.4716","0.049432","117.9"
"4.05664","3966.72","2.5615","0.05123","121.7"
"4.18332","3992.05","2.6576","0.053152","125.5"
"4.30996","4010.43","2.7149","0.054298","129.3"
"4.43659","4035.91","2.8034","0.056068","133.1"
"4.56327","4059.19","2.8928","0.057856","136.9"
"4.68991","4081.62","2.9824","0.059648","140.7"
"4.81655","4104.05","3.074","0.06148","144.5"
"4.94328","4124.96","3.1651","0.063302","148.3"
"5.06996","4142.84","3.2397","0.064794","152.1"
"5.19659","4164.15","3.3255","0.06651","155.9"
"5.32332","4184.63","3.4175","0.06835","159.7"
"5.44996","4159.83","3.4701","0.069402","163.5"
"5.57664","4207.95","3.5419","0.070838","167.3"
"5.70328","4227.93","3.6313","0.072626","171.1"
"5.82991","4246.01","3.7205","0.07441","174.9"
"5.95655","4263.44","3.8144","0.076288","178.7"
"6.08323","4280.25","3.9064","0.078128","182.5"
"6.20987","4296.35","4.001","0.08002","186.3"
"6.33655","4312.16","4.0919","0.081838","190.1"
"6.46323","4327.19","4.1828","0.083656","193.9"
"6.58992","4342.79","4.278","0.08556","197.7"
"6.7166","4357.56","4.3696","0.087392","201.5"
"6.84328","4371.66","4.4635","0.08927","205.3"
"6.96996","4385.15","4.554","0.09108","209.1"
"7.09665","4398.13","4.6454","0.092908","212.9"
"7.22333","4410.87","4.7369","0.094738","216.7"
"7.35001","4423.14","4.8275","0.09655","220.5"
"7.47665","4435.09","4.9209","0.098418","224.3"
"7.60328","4446.71","5.01","0.1002","228.1"
"7.72997","4458.17","5.0981","0.101962","231.9"
"7.8566","4469.09","5.1864","0.103728","235.7"
"7.98324","4480.06","5.2798","0.105596","239.5"
"8.10997","4490.81","5.3787","0.107574","243.3"
"8.2366","4500.77","5.4739","0.109414","247.1"
"8.36329","4510.59","5.5691","0.111382","250.9"
"8.49002","4520.79","5.6683","0.113366","254.7"
"8.61665","4529.97","5.7673","0.115346","258.5"
"8.74333","4539.34","5.8652","0.117304","262.3"
"8.87002","4548.36","5.965","0.1193","266.1"
"8.99661","4556.68","6.0631","0.121262","269.9"
"9.12324","4564.81","6.1587","0.123174","273.7"
"9.24992","4573.71","6.2618","0.125236","277.5"
"9.37656","4581.23","6.3577","0.127154","281.3"
"9.5032","4589.31","6.4532","0.129064","285.1"
"9.62993","4597.53","6.5505","0.13101","288.9"
"9.75661","4605.12","6.6485","0.13297","292.7"
"9.88324","4612.48","6.7439","0.134878","296.5"
"10.0099","4619.87","6.8444","0.136888","300.3"
"10.1366","4627.29","6.9375","0.13875","304.1"
"10.2633","4634.15","7.0338","0.140676","307.9"
"10.39","4640.84","7.129","0.14258","311.7"
"10.5166","4647.39","7.2296","0.144592","315.5"
"10.6433","4653.73","7.3261","0.146522","319.3"
"10.7699","4660.8","7.4281","0.148562","323.1"
"10.8966","4667.1","7.5279","0.150558","326.9"
"11.0232","4673.76","7.6321","0.152642","330.7"
"11.1499","4679.85","7.73","0.1546","334.5"
"11.2766","4685.95","7.8321","0.156642","338.3"
"11.4033","4691.78","7.9353","0.158706","342.1"
"11.5299","4697.63","8.0344","0.160688","345.9"
"11.6567","4703.54","8.135","0.1627","349.7"
"11.7833","4708.79","8.2381","0.16473","353.5"
"11.91","4714.14","8.338","0.16676","357.3"
"12.0367","4720.17","8.4412","0.168824","361.1"
"12.1633","4725.29","8.5412","0.170824","364.9"
"12.2899","4730.1","8.6382","0.172764","368.7"
"12.4166","4735.01","8.7383","0.174766","372.5"
"12.5432","4739.96","8.8354","0.176708","376.3"
"12.6699","4745","8.9359","0.178718","380.1"
"12.7966","4750","9.0408","0.180816","383.9"
"12.9233","4754.7","9.1419","0.182838","387.7"
"13.0499","4759.69","9.2412","0.184824","391.5"
"13.1766","4764.37","9.3399","0.186798","395.3"
"13.3033","4769.09","9.4398","0.188796","399.1"
"13.4299","4773.19","9.5401","0.190802","402.9"
"13.5566","4777.51","9.6452","0.192904","406.7"
"13.6833","4781.75","9.7462","0.194924","410.5"
"13.8099","4785.74","9.8519","0.197038","414.3"
"13.9366","4790.21","9.9511","0.199022","418.1"
"14.0633","4794.39","10.0506","0.201012","421.9"
"14.1899","4798.48","10.153","0.20306","425.7"
"14.3166","4802.56","10.2551","0.205102","429.5"
"14.4433","4806.76","10.3591","0.207182","433.3"
"14.5699","4810.52","10.4616","0.209232","437.1"
"14.6966","4814.68","10.5636","0.211272","440.9"
"14.8234","4818.47","10.6678","0.213356","444.7"
"14.95","4822.74","10.7789","0.215578","448.5"
"15.0767","4826.17","10.8843","0.217686","452.3"
"15.2034","4830.12","10.9937","0.219874","456.1"
"15.3299","4833.18","11.1077","0.222154","459.9"
"15.4566","4836.62","11.2276","0.22437","463.7"
"15.5833","4840.46","11.3255","0.22651","467.5"
"15.7099","4843.62","11.4246","0.228492","471.3"
"15.8366","4846.98","11.5237","0.230474","475.1"
"15.9633","4850.55","11.6254","0.232508","478.9"
"16.0899","4853.87","11.7252","0.234504","482.7"
"16.2166","4857.16","11.8242","0.236484","486.5"
"16.3433","4860.69","11.9288","0.238576","490.3"
"16.47","4863.94","12.0331","0.240662","494.1"
"16.5966","4867.01","12.1329","0.242658","497.9"
"16.7233","4870.23","12.2332","0.244664","501.7"
"16.8499","4872.97","12.3378","0.246756","505.5"
"16.9766","4876.06","12.4439","0.248878","509.3"
"17.1033","4879.08","12.5462","0.250924","513.1"
"17.23","4882.15","12.6513","0.253026","516.9"
"17.3566","4885.33","12.7573","0.255146","520.7"
"17.4833","4888.52","12.8658","0.257316","524.5"
"17.61","4891.44","12.9743","0.259486","528.3"
"17.7366","4894.53","13.0862","0.261724","532.1"
"17.8633","4897.55","13.1876","0.263752","535.9"
"17.99","4900.65","13.2781","0.265562","539.7"
"18.1167","4903.16","13.3756","0.267512","543.5"
"18.2433","4906.29","13.4702","0.269404","547.3"
"18.37","4909.24","13.5633","0.271266","551.1"
"18.4966","4911.57","13.6581","0.273162","554.9"
"18.6232","4914.63","13.7501","0.275002","558.7"
"18.7499","4917.38","13.844","0.27688","562.5"
"18.8765","4920.04","13.9388","0.278776","566.3"
"19.0032","4922.53","14.0349","0.280698","570.1"
"19.1299","4925.12","14.1344","0.282688","573.9"
"19.2566","4927.79","14.2278","0.284556","577.7"
"19.3833","4930.25","14.3299","0.286598","581.5"
"19.51","4932.88","14.447","0.28894","585.3"
"19.6366","4934.84","14.5641","0.291282","589.1"
"19.7633","4937.31","14.6944","0.293888","592.9"
"19.89","4939.67","14.7919","0.295838","596.7"
"20.0166","4941.71","14.8848","0.297696","600.5"
"20.1432","4944.17","14.9702","0.299404","604.3"
"20.2699","4946.27","15.06","0.3012","608.1"
"20.3966","4948.65","15.1466","0.302932","611.9"
"20.5232","4949.45","15.2331","0.304662","615.7"
"20.6499","4952.36","15.3189","0.306378","619.5"
"20.7766","4955.04","15.4051","0.308102","623.3"
"20.9033","4957.54","15.495","0.3099","627.1"
"21.03","4957.79","15.5763","0.311526","630.9"
"21.1566","4960.89","15.6625","0.31325","634.7"
"21.2833","4962.88","15.7445","0.31489","638.5"
"21.41","4965.01","15.8299","0.316598","642.3"
"21.5366","4967.34","15.9156","0.318312","646.1"
"21.6633","4969.4","16.0007","0.320014","649.9"
"21.7899","4971.79","16.0869","0.321738","653.7"
"21.9166","4974.28","16.1696","0.323392","657.5"
"22.0432","4975.99","16.2538","0.325076","661.3"
"22.1699","4978.14","16.3376","0.326752","665.1"
"22.2966","4978.26","16.4181","0.328362","668.9"
"22.4233","4978.08","16.4956","0.329912","672.7"
"22.55","4980.23","16.5736","0.331472","676.5"
"22.6766","4982.14","16.6511","0.333022","680.3"
"22.8033","4983.99","16.7292","0.334584","684.1"
"22.93","4984.54","16.8081","0.336162","687.9"
"23.0567","4983.46","16.8793","0.337586","691.7"
"23.1833","4981.64","16.9485","0.33897","695.5"
"23.3099","4971.85","17.015","0.3403","699.3"
"23.4366","4968.54","17.07","0.3414","703.1"
"23.5632","4960.96","17.1209","0.342418","706.9"
"23.6899","4960.29","17.1644","0.343288","710.7"
"23.8166","4950.97","17.205","0.3441","714.5"
"23.9433","4936.34","17.2314","0.344628","718.3"
"24.07","4930.71","17.2599","0.345198","722.1"
"24.1967","4925.22","17.2839","0.345678","725.9"
"24.3233","4909.08","17.3003","0.346006","729.7"
"24.45","4895.85","17.3154","0.346308","733.5"
"24.5767","4860.07","17.3239","0.346478","737.3"
"24.7033","4791.89","17.3203","0.346406","741.1"
"24.83","4753.53","17.3169","0.346338","744.9"
"24.9566","4743.91","17.3177","0.346354","748.7"
"25.0833","4670.25","17.311","0.34622","752.5"
"25.2099","4643.37","17.3095","0.34619","756.3"
"25.3366","4550.08","17.2999","0.345998","760.1"
"25.4632","4496.81","17.2911","0.345822","763.9"
"25.5899","4423.79","17.2837","0.345674","767.7"
"25.7166","4316.81","17.2738","0.345476","771.5"
"25.8433","3492.4","17.1902","0.343804","775.3"
"25.97","3384.1","17.1694","0.343388","779.1"
"26.0319","1136.19","17.1526","0.343052","780.952"