Folder: MFRPPO/experimental_data/tensile_specimen_test_data/tensile_test_data/20250312/original_data/SSS 9 03-12-25 16 18 12 下午

Note: README.md
# MFRPPO
Enhanced Mechanical Properties of 3D Printed Composites via Continuous Metal Fiber Reinforcement and Process Parameter Optimization

File: 数采：横梁, … - (实时值).csv
"文件路径: C:\Users\Lenovo\Desktop\Wayne\20250312\原始数据\SSS 9 03-12-25 16 18 12 下午\数采：横梁, … - (实时值).csv   "
"试验: 拉伸试验（UNIVER）      视频引伸计采集变形-W 1"
"试验运行: SSS 9"
"日期: 2025/3/12 13:40:42"
""
""
"横梁 ","力 ","视频引伸计变形 ","应变 ","时间 "
"mm","N","mm","mm/mm","sec"
"0.00246845","-94.8836","0.0001","2e-06","0.1"
"0.15989","534.372","0.1933","0.003866","4.8"
"0.316567","1088.85","0.3137","0.006274","9.5"
"0.47329","1470.48","0.4246","0.008492","14.2"
"0.62992","1698.49","0.5371","0.010742","18.9"
"0.786596","1855.82","0.6554","0.013108","23.6"
"0.943226","1972.72","0.7713","0.015426","28.3"
"1.0999","2059.13","0.8839","0.017678","33"
"1.25663","2131.06","1.0017","0.020034","37.7"
"1.41321","2189.63","1.1228","0.022456","42.4"
"1.56993","2239.93","1.2428","0.024856","47.1"
"1.72661","2284.26","1.3625","0.02725","51.8"
"1.88324","2318.1","1.4759","0.029518","56.5"
"2.03996","2355.95","1.5979","0.031958","61.2"
"2.19659","2390.13","1.7184","0.034368","65.9"
"2.35318","2421.98","1.8385","0.03677","70.6"
"2.50995","2452.86","1.957","0.03914","75.3"
"2.66658","2481.14","2.241","0.04482","80"
"2.82321","2471.56","2.3101","0.046202","84.7"
"2.97993","2523.09","2.4135","0.04827","89.4"
"3.13651","2548.35","2.5321","0.050642","94.1"
"3.29323","2572.83","2.6503","0.053006","98.8"
"3.45","2596.53","2.7746","0.055492","103.5"
"3.60659","2618.5","2.8922","0.057844","108.2"
"3.76331","2640.38","3.0179","0.060358","112.9"
"3.91994","2661.21","3.1371","0.062742","117.6"
"4.07657","2680.51","3.262","0.06524","122.3"
"4.23325","2699.56","3.3826","0.067652","127"
"4.38988","2717.23","3.5071","0.070142","131.7"
"4.54655","2734.65","3.6314","0.072628","136.4"
"4.70328","2751.34","3.7575","0.07515","141.1"
"4.85986","2766.87","3.8848","0.077696","145.8"
"5.01658","2781.82","4.0091","0.080182","150.5"
"5.17326","2796.3","4.1333","0.082666","155.2"
"5.32989","2809.47","4.2632","0.085264","159.9"
"5.48661","2822.62","4.3918","0.087836","164.6"
"5.64324","2834.93","4.5194","0.090388","169.3"
"5.79987","2846.31","4.647","0.09294","174"
"5.9566","2858.11","4.7741","0.095482","178.7"
"6.11323","2868.64","4.9005","0.09801","183.4"
"6.2699","2878.65","5.037","0.10074","188.1"
"6.42663","2888.3","5.1642","0.103284","192.8"
"6.58321","2897.34","5.2959","0.105918","197.5"
"6.73989","2906.01","5.4296","0.108592","202.2"
"6.89661","2914.65","5.5675","0.11135","206.9"
"7.05319","2922.25","5.7015","0.11403","211.6"
"7.20992","2930.26","5.8371","0.116742","216.3"
"7.36655","2937.4","5.9719","0.119438","221"
"7.52322","2944.66","6.114","0.12228","225.7"
"7.67995","2945.28","6.2424","0.124848","230.4"
"7.83662","2955.86","6.3733","0.127466","235.1"
"7.99325","2962.31","6.5064","0.130128","239.8"
"8.14997","2968.86","6.6406","0.132812","244.5"
"8.30656","2974.48","6.7778","0.135556","249.2"
"8.46323","2980.44","6.9118","0.138236","253.9"
"8.61991","2986.11","7.0479","0.140958","258.6"
"8.77654","2991.4","7.181","0.14362","263.3"
"8.93326","2996.79","7.3182","0.146364","268"
"9.08994","3001.63","7.4504","0.149008","272.7"
"9.24657","3006.48","7.5877","0.151754","277.4"
"9.40329","3011.24","7.7191","0.154382","282.1"
"9.55992","3015.68","7.8525","0.15705","286.8"
"9.71655","3019.8","7.9894","0.159788","291.5"
"9.87328","3023.97","8.1261","0.162522","296.2"
"10.0299","3028.1","8.2601","0.165202","300.9"
"10.1865","3032.04","8.3937","0.167874","305.6"
"10.3433","3036.18","8.5278","0.170556","310.3"
"10.4999","3039.61","8.6658","0.173316","315"
"10.6566","3042.9","8.8053","0.176106","319.7"
"10.8133","3046.57","8.9434","0.178868","324.4"
"10.9699","3049.97","9.0803","0.181606","329.1"
"11.1266","3053.38","9.2212","0.184424","333.8"
"11.2832","3056.59","9.3573","0.187146","338.5"
"11.4399","3059.68","9.4958","0.189916","343.2"
"11.5966","3062.85","9.6392","0.192784","347.9"
"11.7532","3065.74","9.7845","0.19569","352.6"
"11.9099","3068.49","9.9269","0.198538","357.3"
"12.0666","3071.89","10.0664","0.201328","362"
"12.2232","3074.51","10.2079","0.204158","366.7"
"12.38","3077.12","10.3523","0.207046","371.4"
"12.5366","3079.84","10.4922","0.209844","376.1"
"12.6932","3081.76","10.6303","0.212606","380.8"
"12.8499","3084.44","10.7706","0.215412","385.5"
"13.0066","3086.88","10.9092","0.218184","390.2"
"13.1632","3088.92","11.0591","0.221182","394.9"
"13.3199","3091.72","11.1989","0.223978","399.6"
"13.4765","3093.75","11.3459","0.226918","404.3"
"13.6332","3095.75","11.4885","0.22977","409"
"13.79","3098.19","11.6446","0.232892","413.7"
"13.9465","3100.02","11.7987","0.235974","418.4"
"14.1033","3101.84","11.9509","0.239018","423.1"
"14.2599","3103.69","12.1018","0.242036","427.8"
"14.4166","3105.44","12.2596","0.245146","432.5"
"14.5733","3107.41","12.4159","0.248318","437.2"
"14.7299","3109.18","12.5733","0.251466","441.9"
"14.8866","3110.63","12.7307","0.254614","446.6"
"15.0433","3112.82","12.888","0.25776","451.3"
"15.1999","3114.45","13.0527","0.261054","456"
"15.3566","3116.45","13.214","0.26428","460.7"
"15.5133","3117.89","13.374","0.26748","465.4"
"15.6698","3119.49","13.5349","0.270698","470.1"
"15.8266","3121.65","13.6933","0.273866","474.8"
"15.9832","3122.92","13.8512","0.277024","479.5"
"16.1399","3124.36","14.0039","0.280078","484.2"
"16.2966","3126.19","14.1588","0.283176","488.9"
"16.4533","3127.21","14.314","0.28628","493.6"
"16.6099","3128.6","14.4736","0.289472","498.3"
"16.7666","3130.54","14.6363","0.292726","503"
"16.9233","3131.56","14.7865","0.29573","507.7"
"17.0799","3133.18","14.951","0.29902","512.4"
"17.2366","3134.83","15.1112","0.302224","517.1"
"17.3932","3136","15.273","0.30546","521.8"
"17.5499","3137.77","15.4396","0.308792","526.5"
"17.7066","3138.97","15.6127","0.312254","531.2"
"17.8632","3140.57","15.7848","0.315696","535.9"
"18.0199","3141.45","15.9572","0.319144","540.6"
"18.1766","3142.57","16.1105","0.32221","545.3"
"18.3333","3144.14","16.2742","0.325484","550"
"18.49","3145.36","16.446","0.32892","554.7"
"18.6466","3146.78","16.5978","0.331956","559.4"
"18.8032","3147.89","16.7646","0.335292","564.1"
"18.9599","3148.57","16.9141","0.338282","568.8"
"19.1165","3149.94","17.076","0.34152","573.5"
"19.2732","3151.42","17.2346","0.344692","578.2"
"19.4299","3152.33","17.3875","0.34775","582.9"
"19.5865","3153.38","17.541","0.35082","587.6"
"19.7433","3154.55","17.7056","0.354112","592.3"
"19.8999","3155.69","17.8701","0.357402","597"
"20.0565","3156.21","18.0238","0.360476","601.7"
"20.2133","3157.73","18.2073","0.364146","606.4"
"20.3699","3158.92","18.3761","0.367522","611.1"
"20.5265","3159.72","18.5422","0.370844","615.8"
"20.6833","3160.95","18.6984","0.373968","620.5"
"20.8399","3161.89","18.8535","0.37707","625.2"
"20.9966","3162.95","19.0027","0.380054","629.9"
"21.1533","3164.49","19.153","0.38306","634.6"
"21.3099","3165.28","19.3077","0.386154","639.3"
"21.4666","3166.43","19.4684","0.389368","644"
"21.6233","3167.57","19.6154","0.392308","648.7"
"21.7799","3168.27","19.7805","0.39561","653.4"
"21.9366","3169.39","19.9373","0.398746","658.1"
"22.0932","3170.45","20.1133","0.402266","662.8"
"22.2499","3171.11","20.2603","0.405206","667.5"
"22.4066","3172.31","20.4013","0.408026","672.2"
"22.5632","3173.26","20.5551","0.411102","676.9"
"22.7199","3174.27","20.7061","0.414122","681.6"
"22.8766","3175.13","20.8514","0.417028","686.3"
"23.0332","3175.88","21.0032","0.420064","691"
"23.1899","3177.08","21.151","0.42302","695.7"
"23.3466","3177.95","21.3027","0.426054","700.4"
"23.5032","3178.59","21.4523","0.429046","705.1"
"23.6599","3179.59","21.5916","0.431832","709.8"
"23.8166","3180.06","21.73","0.4346","714.5"
"23.9732","3181.23","21.8679","0.437358","719.2"
"24.13","3182.22","22.0133","0.440266","723.9"
"24.2865","3182.87","22.1504","0.443008","728.6"
"24.4432","3183.58","22.2904","0.445808","733.3"
"24.5999","3184.57","22.4312","0.448624","738"
"24.7565","3185.23","22.5746","0.451492","742.7"
"24.9132","3186.21","22.7173","0.454346","747.4"
"25.0699","3186.88","22.8575","0.45715","752.1"
"25.2266","3187.47","22.9996","0.459992","756.8"
"25.3833","3188.25","23.1426","0.462852","761.5"
"25.54","3189.01","23.2872","0.465744","766.2"
"25.6966","3189.66","23.4265","0.46853","770.9"
"25.8533","3190.42","23.573","0.47146","775.6"
"26.0099","3190.7","23.7187","0.474374","780.3"
"26.1666","3191.44","23.8677","0.477354","785"
"26.3232","3192.23","24.0112","0.480224","789.7"
"26.4798","3191.7","24.1517","0.483034","794.4"
"26.6366","3192.72","24.2961","0.485922","799.1"
"26.7932","3193.51","24.4446","0.488892","803.8"
"26.9499","3194.4","24.5925","0.49185","808.5"
"27.1066","3195.41","24.7473","0.494946","813.2"
"27.2633","3195.94","24.9009","0.498018","817.9"
"27.4199","3196.71","25.0613","0.501226","822.6"
"27.5767","3197.41","25.2332","0.504664","827.3"
"27.7332","3197.91","25.4029","0.508058","832"
"27.8899","3198.71","25.5823","0.511646","836.7"
"28.0466","3199.12","25.72","0.5144","841.4"
"28.2032","3198.93","25.8638","0.517276","846.1"
"28.3599","3198.66","25.9993","0.519986","850.8"
"28.5166","3199.52","26.1363","0.522726","855.5"
"28.6732","3199.02","26.2779","0.525558","860.2"
"28.8299","3199.57","26.4124","0.528248","864.9"
"28.9866","3199.97","26.5505","0.53101","869.6"
"29.1432","3200.75","26.6847","0.533694","874.3"
"29.3","3201.19","26.8251","0.536502","879"
"29.4565","3201.71","26.9631","0.539262","883.7"
"29.6132","3202.14","27.1024","0.542048","888.4"
"29.7699","3202.24","27.2385","0.54477","893.1"
"29.9266","3202.74","27.372","0.54744","897.8"
"30.0832","3203.32","27.5104","0.550208","902.5"
"30.24","3203.62","27.6417","0.552834","907.2"
"30.3965","3203.37","27.7825","0.55565","911.9"
"30.5533","3203.21","27.9124","0.558248","916.6"
"30.7099","3203.84","28.0442","0.560884","921.3"
"30.8665","3204.05","28.1815","0.56363","926"
"31.0233","3203.84","28.3158","0.566316","930.7"
"31.1799","3204.07","28.4512","0.569024","935.4"
"31.3366","3202.67","28.5798","0.571596","940.1"
"31.4933","3191.07","28.6888","0.573776","944.8"
"31.6499","3152.96","28.7566","0.575132","949.5"
"31.8066","1905.78","28.4308","0.568616","954.2"
"31.9633","1929.08","28.4444","0.568888","958.9"
"32.1199","1728.4","28.4042","0.568084","963.6"
"32.1265","41.9384","28.3864","0.567728","963.792"