Folder: MFRPPO/experimental_data/bending_specimen_test_data/bending_test_data

Note: README.md
# MFRPPO
Enhanced Mechanical Properties of 3D Printed Composites via Continuous Metal Fiber Reinforcement and Process Parameter Optimization

File: Flexural results.txt
	峰值载荷（N）	          			峰值应力（MPa）				模量（GPa）
0        12                         				26.7						139
1 	68.461/70.929/70.697/70.272/58.220		152.1/157.6/157.1/156.2/129.4		27.215/25.063/24.474/27.503
2	91.691/90.519/94.859/99.354/91.783		203.8/201.2/210.8/220.8/204.0		30.269/34.881/30.702/32.897/35.079
3	129.458/131.305/129.841/106.815/89.671	300.2/304.5/301.1/265/257.1		44.377/47.262/46.668/44.039/39.002
4	144.121/157.635/108.220/105.509/		334.2/365.5/354.1/345.2/			55.504/51.685/49.686/52.485
5	164.782/165.743/147.310/143.744/106.841	399.5/420.9/413.5/451/474.9		64.932/64.819/65.982/73.238/64.420

均值：
1	69.81	155.13		25.58
2	92.78	206.2		32.83
3	122.65	288.77		46.10
4	150.878	344.5		51.29
5	165.263	411.3		65.24