Folder: MFRPPO/experimental_data/tensile_specimen_test_data/tensile_test_data/20250311/SSS 1 03-11-25 12 36 06 下午

Note: README.md
# MFRPPO
Enhanced Mechanical Properties of 3D Printed Composites via Continuous Metal Fiber Reinforcement and Process Parameter Optimization

File: 数采：横梁, … - (实时值).csv
"文件路径: C:\Users\Lenovo\Desktop\Wayne\20250311\SSS 1 03-11-25 12 36 06 下午\数采：横梁, … - (实时值).csv   "
"试验: MTS EM 拉伸试验-W 2"
"试验运行: SSS 1"
"日期: 2025/3/11 11:47:15"
""
""
"横梁 ","力 ","应变 ","应力 ","时间 "
"mm","N","mm/mm","N/mm²","sec"
"0.00409855","10.2499","3.37665e-05","0.525634","0.149"
"0.010945","23.7911","9.08202e-05","1.22006","0.349"
"0.0176983","39.3467","0.000147486","2.01778","0.549"
"0.0244516","55.6075","0.000203375","2.85167","0.749"
"0.0311583","71.9305","0.000259653","3.68875","0.949"
"0.0378651","88.7674","0.000315154","4.55218","1.149"
"0.0445252","105.519","0.000370655","5.41122","1.349"
"0.0511388","122.433","0.000425768","6.27862","1.549"
"0.0577989","139.284","0.00048127","7.142757","1.749"
"0.0644591","156.134","0.000537159","8.00688","1.949"
"0.0711658","173.466","0.000593048","8.895717","2.149"
"0.077826","189.975","0.000648162","9.742302","2.349"
"0.0844861","206.076","0.000703663","10.568","2.549"
"0.0910997","222.187","0.000758776","11.3942","2.749"
"0.0978064","237.676","0.000814665","12.1885","2.949"
"0.104467","252.96","0.000870167","12.9723","3.149"
"0.111127","267.386","0.000925668","13.71209","3.349"
"0.117787","282.097","0.000981169","14.4665","3.549"
"0.124447","296.611","0.00103667","15.2108","3.749"
"0.131107","310.838","0.00109217","15.94042","3.949"
"0.137814","325.204","0.00114806","16.6771","4.149"
"0.144474","339.186","0.00120356","17.3942","4.349"
"0.151134","353.164","0.00125945","18.111","4.549"
"0.157794","367.293","0.00131495","18.8355","4.749"
"0.164501","381.012","0.00137045","19.53907","4.949"
"0.171161","394.549","0.00142596","20.2333","5.149"
"0.177821","408.243","0.00148184","20.93555","5.349"
"0.184528","421.491","0.00153735","21.6149","5.549"
"0.191188","434.599","0.00159285","22.2871","5.749"
"0.197848","447.677","0.00164835","22.9578","5.949"
"0.204462","460.219","0.00170385","23.601","6.149"
"0.211122","472.596","0.00175935","24.2357","6.349"
"0.217782","484.729","0.00181485","24.8579","6.549"
"0.224489","496.396","0.00187035","25.4562","6.749"
"0.231149","507.535","0.00192585","26.0274","6.949"
"0.237763","518.224","0.00198136","26.5756","7.149"
"0.244423","527.85","0.00203647","27.0692","7.349"
"0.251083","537.315","0.00209197","27.5546","7.549"
"0.25779","546.299","0.00214786","28.0153","7.749"
"0.264496","553.952","0.00220375","28.4078","7.949"
"0.27111","560.882","0.00225886","28.7632","8.149"
"0.277817","566.868","0.00231475","29.0701","8.349"
"0.28443","572.105","0.00237025","29.33874","8.549"
"0.291184","576.222","0.00242614","29.5498","8.749"
"0.297844","579.521","0.00248203","29.719","8.949"
"0.304504","582.086","0.00253714","29.8505","9.149"
"0.311164","583.477","0.00259303","29.92189","9.349"
"0.317824","584.41","0.00264815","29.9698","9.549"
"0.324531","584.848","0.00270404","29.9922","9.749"
"0.331191","585.253","0.00275954","30.013","9.949"
"0.337851","585.601","0.00281504","30.0308","10.149"
"0.344465","585.408","0.00287054","30.0209","10.349"
"0.351172","585.041","0.00292604","30.0021","10.549"
"0.357785","585.152","0.00298115","30.0078","10.749"
"0.364445","585.299","0.00303704","30.0154","10.949"
"0.371105","585.411","0.00309216","30.02106","11.149"
"0.377812","585.829","0.00314805","30.0425","11.349"
"0.384426","585.886","0.00320355","30.0454","11.549"
"0.391132","586.063","0.00325905","30.0545","11.749"
"0.397746","585.94","0.00331416","30.0482","11.949"
"0.404453","585.322","0.00337005","30.01652","12.149"
"0.41116","584.92","0.00342594","29.99592","12.349"
"0.41782","584.75","0.00348183","29.9872","12.549"
"0.42448","584.817","0.00353733","29.9906","12.749"
"0.43114","584.779","0.00359244","29.9886","12.949"
"0.4378","584.987","0.00364833","29.9993","13.149"
"0.444507","585.149","0.00370384","30.0076","13.349"
"0.451214","585.329","0.00375972","30.0169","13.549"
"0.457827","585.208","0.00381484","30.0107","13.749"
"0.464487","585.36","0.00387073","30.0184","13.949"
"0.471147","585.364","0.00392584","30.01867","14.149"
"0.477808","585.496","0.00398173","30.0254","14.349"
"0.484468","585.374","0.00403723","30.0192","14.549"
"0.491174","585.104","0.00409273","30.0053","14.749"
"0.497788","584.402","0.00414785","29.96934","14.949"
"0.504448","583.603","0.00420373","29.9284","15.149"
"0.511108","582.581","0.00425885","29.876","15.349"
"0.517768","581.391","0.00431474","29.8149","15.549"
"0.524429","579.674","0.00437024","29.7269","15.749"
"0.531135","578.246","0.00442574","29.6537","15.949"
"0.537796","576.756","0.00448124","29.5772","16.149"
"0.544456","576.109","0.00453713","29.544","16.349"
"0.551116","575.418","0.00459263","29.5086","16.549"
"0.557776","575.509","0.00464813","29.5133","16.749"
"0.564529","575.536","0.00470402","29.5146","16.949"
"0.571143","575.58","0.00475952","29.5169","17.149"
"0.57785","575.572","0.00481502","29.5165","17.349"
"0.58451","575.508","0.00487053","29.5132","17.549"
"0.59117","576.003","0.00492603","29.5386","17.749"
"0.59783","576.801","0.00498153","29.5796","17.949"
"0.604537","577.854","0.00503742","29.6335","18.149"
"0.611197","578.829","0.00509292","29.6835","18.349"
"0.617857","579.922","0.00514842","29.7396","18.549"
"0.624471","580.541","0.00520353","29.7713","18.749"
"0.631131","581.245","0.00525904","29.80741","18.949"
"0.637791","581.562","0.00531454","29.8237","19.149"
"0.644498","581.619","0.00537081","29.8266","19.349"
"0.651111","581.156","0.00542593","29.8029","19.549"
"0.657771","580.701","0.00548143","29.7796","19.749"
"0.664432","580.035","0.00553654","29.7454","19.949"
"0.671092","578.933","0.00559243","29.68888","20.149"
"0.677798","578.293","0.00564832","29.6561","20.349"
"0.684459","577.626","0.00570343","29.62186","20.549"
"0.691119","577.044","0.00575932","29.592","20.749"
"0.697779","576.084","0.00581444","29.54275","20.949"
"0.704486","574.694","0.00587033","29.4715","21.149"
"0.711146","573.399","0.00592621","29.4051","21.349"
"0.717852","571.962","0.00598172","29.3314","21.549"
"0.724513","570.586","0.00603722","29.2608","21.749"
"0.731173","569.089","0.00609311","29.18405","21.949"
"0.737833","568.07","0.00614822","29.1318","22.149"
"0.744493","567.067","0.00620411","29.0803","22.349"
"0.751153","566.762","0.00625922","29.06474","22.549"
"0.75786","566.795","0.00631511","29.0664","22.749"
"0.764474","566.115","0.00637022","29.0315","22.949"
"0.77118","565.781","0.00642611","29.0144","23.149"
"0.777794","565.32","0.00648123","28.9908","23.349"
"0.784454","564.608","0.00653673","28.9543","23.549"
"0.791114","563.745","0.00659223","28.91","23.749"
"0.797821","563.258","0.00664812","28.885","23.949"
"0.804481","562.509","0.00670362","28.84664","24.149"
"0.811095","562.204","0.00675912","28.83098","24.349"
"0.817755","561.941","0.00681423","28.8175","24.549"
"0.824415","562.009","0.00687012","28.821","24.749"
"0.831168","561.953","0.00692601","28.81809","24.949"
"0.837828","561.661","0.00698151","28.8031","25.149"
"0.844488","561.757","0.00703702","28.8081","25.349"
"0.851149","561.367","0.00709252","28.7881","25.549"
"0.857855","561.796","0.00714841","28.81","25.749"
"0.864515","562.417","0.00720391","28.84187","25.949"
"0.871222","562.872","0.0072598","28.8652","26.149"
"0.877836","562.714","0.00731491","28.8571","26.349"
"0.884496","562.423","0.0073708","28.8422","26.549"
"0.891156","561.71","0.00742591","28.8056","26.749"
"0.897816","561.305","0.0074818","28.7849","26.949"
"0.904476","560.305","0.00753692","28.7336","27.149"
"0.911137","559.182","0.00759242","28.676","27.349"
"0.917797","557.816","0.00764792","28.606","27.549"
"0.924457","556.544","0.00770342","28.54071","27.749"
"0.931117","555.447","0.00775892","28.4845","27.949"
"0.937731","554.677","0.00781442","28.445","28.149"
"0.944437","554.359","0.00786992","28.4287","28.349"
"0.951144","554.43","0.00792581","28.4323","28.549"
"0.957804","553.999","0.00798131","28.41019","28.749"
"0.964464","553.626","0.00803681","28.3911","28.949"
"0.971124","553.248","0.00809232","28.37171","29.149"
"0.977785","553.018","0.00814821","28.3599","29.349"
"0.984538","553.628","0.0082041","28.3912","29.549"
"0.991198","554.243","0.0082596","28.4227","29.749"
"0.997858","554.924","0.0083151","28.4576","29.949"
"1.00447","555.805","0.0083706","28.5028","30.149"
"1.01118","556.95","0.0084261","28.5616","30.349"
"1.01784","557.641","0.0084816","28.597","30.549"
"1.02455","558.478","0.00853749","28.63988","30.749"
"1.03116","559.038","0.00859299","28.6686","30.949"
"1.03782","559.52","0.0086481","28.6933","31.149"
"1.04443","559.827","0.00870361","28.7091","31.349"
"1.05109","560.591","0.00875872","28.74827","31.549"
"1.0578","561.446","0.00881461","28.7921","31.749"
"1.06446","562.046","0.00887011","28.8229","31.949"
"1.07107","562.672","0.00892561","28.855","32.149"