Folder: MFRPPO/experimental_data/tensile_specimen_test_data/tensile_test_data/20250311/SSS 4 03-11-25 12 36 06 下午

Note: README.md
# MFRPPO
Enhanced Mechanical Properties of 3D Printed Composites via Continuous Metal Fiber Reinforcement and Process Parameter Optimization

File: 数采：横梁, … - (实时值).csv
"文件路径: C:\Users\Lenovo\Desktop\Wayne\20250311\SSS 4 03-11-25 12 36 06 下午\数采：横梁, … - (实时值).csv   "
"试验: MTS EM 拉伸试验-W 2"
"试验运行: SSS 4"
"日期: 2025/3/11 12:13:46"
""
""
"横梁 ","力 ","应变 ","应力 ","时间 "
"mm","N","mm/mm","N/mm²","sec"
"0.00260817","-119.103","2.13466e-05","-6.54411","0.1"
"0.159937","959.733","0.00133242","52.7326","4.8"
"0.31666","1933.38","0.00263844","106.23","9.5"
"0.47329","2788.63","0.00394369","153.221","14.2"
"0.62992","3483.9","0.00524894","191.423","18.9"
"0.786643","3930.56","0.00655497","215.965","23.6"
"0.943226","4179.37","0.00786022","229.636","28.3"
"1.09995","4303.23","0.00916586","236.441","33"
"1.25663","4349.13","0.0104715","238.963","37.7"
"1.41326","4380.32","0.0117767","240.677","42.4"
"1.56998","4410.41","0.0130828","242.3304","47.1"
"1.72666","4440.95","0.0143884","244.008","51.8"
"1.88329","4470.9","0.0156937","245.654","56.5"
"2.03996","4501.69","0.0169997","247.345","61.2"
"2.19659","4530.94","0.0183049","248.953","65.9"
"2.35327","4559.84","0.0196106","250.54","70.6"
"2.50999","4588.95","0.0209162","252.14","75.3"
"2.66658","4616.64","0.0222211","253.661","80"
"2.82325","4644.09","0.0235271","255.17","84.7"
"2.97997","4671.19","0.0248327","256.659","89.4"
"3.13656","4697.03","0.0261376","258.0784","94.1"
"3.29333","4721.92","0.0274444","259.446","98.8"
"3.44996","4746.47","0.0287493","260.795","103.5"
"3.60659","4769.58","0.0300545","262.065","108.2"
"3.76336","4792.94","0.0313609","263.349","112.9"
"3.91994","4803.14","0.0326658","263.909","117.6"
"4.07657","4828.22","0.0339714","265.287","122.3"
"4.23329","4850.28","0.0352775","266.499","127"
"4.38992","4869.88","0.0365823","267.576","131.7"
"4.54665","4889.44","0.0378883","268.65","136.4"
"4.70332","4908.2","0.039194","269.681","141.1"
"4.85991","4925.42","0.0404992","270.628","145.8"
"5.01663","4943.33","0.0418049","271.612","150.5"
"5.17326","4959.66","0.0431101","272.509","155.2"
"5.32994","4975.88","0.0444158","273.4","159.9"
"5.48666","4991.93","0.0457218","274.282","164.6"
"5.64324","4984.55","0.047027","273.876","169.3"
"5.79997","5015.81","0.0483327","275.594","174"
"5.95664","5031.53","0.0496387","276.458","178.7"
"6.11327","5044.72","0.0509436","277.182","183.4"
"6.27","5059.4","0.0522496","277.989","188.1"
"6.42663","5062","0.0535552","278.132","192.8"
"6.58321","5077.54","0.0548601","278.985","197.5"
"6.73998","5091.79","0.0561661","279.769","202.2"
"6.89661","5104.1","0.0574714","280.445","206.9"
"7.05324","5116.23","0.0587766","281.112","211.6"
"7.20996","5128.93","0.0600826","281.809","216.3"
"7.36659","5139.96","0.0613879","282.416","221"
"7.52327","5151.54","0.0626939","283.052","225.7"
"7.68004","5162.94","0.0639999","283.678","230.4"
"7.83667","5173.31","0.0653052","284.248","235.1"
"7.9933","5184.08","0.0666108","284.84","239.8"
"8.15002","5194.26","0.0679165","285.399","244.5"
"8.3066","5203.74","0.0692213","285.92","249.2"
"8.46328","5214.11","0.070527","286.49","253.9"
"8.61991","5223.51","0.0718326","287.006","258.6"
"8.77659","5233.35","0.0731378","287.547","263.3"
"8.93326","5242.92","0.0744439","288.073","268"
"9.08994","5251.89","0.0757491","288.565","272.7"
"9.24662","5261.01","0.0770548","289.0664","277.4"
"9.40329","5269.51","0.0783608","289.534","282.1"
"9.55992","5278.08","0.0796656","290.004","286.8"
"9.71665","5286.75","0.0809717","290.481","291.5"
"9.87332","5295.32","0.0822773","290.952","296.2"
"10.0299","5303.51","0.0835826","291.402","300.9"
"10.1866","5311.6","0.0848882","291.846","305.6"
"10.3433","5319.72","0.0861938","292.293","310.3"
"10.4999","5327.3","0.0874991","292.709","315"
"10.6567","5335.87","0.0888051","293.18","319.7"
"10.8133","5342.93","0.0901104","293.568","324.4"
"10.9699","5350.18","0.0914156","293.966","329.1"
"11.1266","5357.36","0.092722","294.361","333.8"
"11.2833","5364.68","0.0940269","294.763","338.5"
"11.44","5371.62","0.0953325","295.144","343.2"
"11.5966","5378.8","0.0966382","295.539","347.9"
"11.7533","5385.5","0.0979434","295.906","352.6"
"11.91","5392.34","0.0992494","296.282","357.3"
"12.0667","5399.65","0.100555","296.684","362"
"12.2233","5406.01","0.10186","297.034","366.7"
"12.38","5412.53","0.103166","297.392","371.4"
"12.5366","5418.62","0.104472","297.726","376.1"
"12.6933","5425.21","0.105777","298.088","380.8"
"12.8499","5431.78","0.107083","298.449","385.5"
"13.0066","5437.31","0.108388","298.753","390.2"
"13.1633","5443.83","0.109694","299.111","394.9"
"13.32","5450.04","0.111","299.453","399.6"
"13.4766","5455.22","0.112305","299.737","404.3"
"13.6333","5461.56","0.113611","300.086","409"
"13.79","5467.46","0.114916","300.41","413.7"
"13.9466","5473","0.116221","300.714","418.4"
"14.1033","5479.25","0.117528","301.058","423.1"
"14.2599","5484.43","0.118832","301.343","427.8"
"14.4166","5489.59","0.120138","301.6256","432.5"
"14.5733","5495.76","0.121444","301.965","437.2"
"14.7299","5500.4","0.122749","302.22","441.9"
"14.8866","5506.07","0.124055","302.531","446.6"
"15.0433","5511.36","0.125361","302.822","451.3"
"15.2","5516.2","0.126666","303.088","456"
"15.3566","5521.41","0.127972","303.374","460.7"
"15.5133","5526.73","0.129277","303.667","465.4"
"15.6699","5531.44","0.130582","303.925","470.1"
"15.8266","5536.98","0.131888","304.229","474.8"
"15.9832","5541.52","0.133193","304.479","479.5"
"16.1399","5546.37","0.134499","304.746","484.2"
"16.2966","5551.8","0.135805","305.044","488.9"
"16.4533","5555.2","0.137111","305.231","493.6"
"16.61","5560.44","0.138417","305.5184","498.3"
"16.7667","5565.21","0.139722","305.781","503"
"16.9233","5569.37","0.141027","306.009","507.7"
"17.08","5574.18","0.142333","306.274","512.4"
"17.2366","5578.3","0.143638","306.5","517.1"
"17.3932","5582.15","0.144943","306.712","521.8"
"17.55","5582.97","0.146249","306.757","526.5"
"17.7066","5587.61","0.147555","307.011","531.2"
"17.8633","5592.55","0.14886","307.283","535.9"
"18.02","5597.18","0.150166","307.537","540.6"
"18.1766","5601.31","0.151471","307.764","545.3"
"18.3333","5606.07","0.152777","308.026","550"
"18.49","5610.28","0.154083","308.257","554.7"
"18.6466","5613.64","0.155388","308.442","559.4"
"18.8033","5616.44","0.156694","308.596","564.1"
"18.96","5620.79","0.158","308.835","568.8"
"19.1166","5624.81","0.159305","309.055","573.5"
"19.2733","5628.51","0.160611","309.259","578.2"
"19.4299","5632.22","0.161916","309.463","582.9"
"19.5866","5635.54","0.163221","309.645","587.6"
"19.7433","5639.46","0.164527","309.86","592.3"
"19.8999","5642.13","0.165832","310.007","597"
"20.0566","5646.03","0.167138","310.221","601.7"
"20.2133","5649.9","0.168444","310.434","606.4"
"20.3699","5653.32","0.169749","310.622","611.1"
"20.5266","5657.51","0.171055","310.852","615.8"
"20.6833","5660.8","0.172361","311.033","620.5"
"20.8399","5664.34","0.173666","311.228","625.2"
"20.9967","5668.62","0.174972","311.462","629.9"
"21.1533","5671.83","0.176277","311.639","634.6"
"21.3099","5675.08","0.177582","311.818","639.3"
"21.4666","5678.87","0.178888","312.026","644"
"21.6232","5682.65","0.180194","312.233","648.7"
"21.7799","5686.04","0.181499","312.42","653.4"
"21.9366","5689.96","0.182805","312.635","658.1"
"22.0933","5692.94","0.18411","312.799","662.8"
"22.2499","5696.47","0.185416","312.993","667.5"
"22.4067","5700.25","0.186722","313.2","672.2"
"22.5633","5703.15","0.188027","313.36","676.9"
"22.72","5706.64","0.189333","313.551","681.6"
"22.8766","5709.62","0.190638","313.715","686.3"
"23.0333","5712.79","0.191944","313.889","691"
"23.19","5716.19","0.19325","314.076","695.7"
"23.3466","5719.03","0.194554","314.232","700.4"
"23.5033","5722.39","0.19586","314.417","705.1"
"23.66","5726.19","0.197166","314.626","709.8"
"23.8166","5728.54","0.198471","314.755","714.5"
"23.9733","5731.03","0.199777","314.892","719.2"
"24.13","5731.89","0.201083","314.939","723.9"
"24.2866","5734.7","0.202388","315.093","728.6"
"24.4433","5738.36","0.203694","315.294","733.3"
"24.5999","5740.99","0.204999","315.439","738"
"24.7566","5743.77","0.206304","315.592","742.7"
"24.9133","5747.27","0.207611","315.784","747.4"
"25.0699","5749.92","0.208916","315.93","752.1"
"25.2266","5753.26","0.210222","316.113","756.8"
"25.3834","5754.75","0.211528","316.195","761.5"
"25.54","5756.95","0.212833","316.316","766.2"
"25.6966","5759.61","0.214138","316.462","770.9"
"25.8533","5761.61","0.215444","316.572","775.6"
"26.0099","5763.69","0.216749","316.686","780.3"
"26.1666","5766.62","0.218055","316.847","785"
"26.3232","5768.58","0.21936","316.955","789.7"
"26.4799","5765.78","0.220666","316.801","794.4"
"26.6366","5768.88","0.221972","316.972","799.1"
"26.7933","5771.66","0.223277","317.124","803.8"
"26.9499","5773.48","0.224583","317.224","808.5"
"27.1067","5775.4","0.225889","317.329","813.2"
"27.2633","5776.01","0.227193","317.3632","817.9"
"27.42","5778.88","0.228499","317.521","822.6"
"27.5767","5780.39","0.229805","317.604","827.3"
"27.7332","5780.46","0.23111","317.608","832"
"27.89","5780.16","0.232416","317.591","836.7"
"28.0466","5781.47","0.233722","317.663","841.4"
"28.2033","5784.11","0.235027","317.808","846.1"
"28.36","5785.78","0.236333","317.9","850.8"
"28.5166","5787.87","0.237638","318.015","855.5"
"28.6733","5789.8","0.238943","318.121","860.2"
"28.83","5788.1","0.240249","318.027","864.9"
"28.9866","5790.3","0.241555","318.148","869.6"
"29.1433","5792","0.24286","318.242","874.3"
"29.3","5794.08","0.244166","318.356","879"
"29.4566","5796.6","0.245472","318.4944","883.7"
"29.6133","5797.19","0.246777","318.527","888.4"
"29.77","5795.79","0.248083","318.45","893.1"
"29.9266","5793.9","0.249388","318.346","897.8"
"30.0833","5796.02","0.250694","318.463","902.5"
"30.2399","5792.15","0.251999","318.25","907.2"
"30.3966","5791.11","0.253305","318.193","911.9"
"30.5533","5782","0.254611","317.693","916.6"
"30.7099","5780.51","0.255916","317.611","921.3"
"30.8666","5760.32","0.257222","316.501","926"
"31.0233","5723.65","0.258527","314.486","930.7"
"31.1799","5662.7","0.259832","311.137","935.4"
"31.3367","5569.18","0.261139","305.999","940.1"
"31.4933","5489.57","0.262444","301.625","944.8"
"31.6499","5368.43","0.263749","294.969","949.5"
"31.8067","2276.59","0.265055","125.087","954.2"
"31.9633","2272.08","0.26636","124.84","958.9"
"32.1199","2049.83","0.267665","112.628","963.6"
"32.1522","1601.19","0.267934","87.9775","964.566"