Folder: MFRPPO/experimental_data/tensile_specimen_test_data/tensile_test_data/20250311/SSS 3 03-11-25 12 36 06 下午

Note: README.md
# MFRPPO
Enhanced Mechanical Properties of 3D Printed Composites via Continuous Metal Fiber Reinforcement and Process Parameter Optimization

File: 数采：横梁, … - (实时值).csv
"文件路径: C:\Users\Lenovo\Desktop\Wayne\20250311\SSS 3 03-11-25 12 36 06 下午\数采：横梁, … - (实时值).csv   "
"试验: MTS EM 拉伸试验-W 2"
"试验运行: SSS 3"
"日期: 2025/3/11 12:06:05"
""
""
"横梁 ","力 ","应变 ","应力 ","时间 "
"mm","N","mm/mm","N/mm²","sec"
"0.00274789","-132.11","2.2511e-05","-7.258771","0.1"
"0.0130874","-71.3992","0.000109062","-3.92303","0.4"
"0.0232407","-8.65239","0.000193672","-0.475406","0.7"
"0.0333008","47.3432","0.000277118","2.60127","1"
"0.0432677","101.594","0.000360176","5.582089","1.3"
"0.0533744","155.334","0.000444398","8.534859","1.6"
"0.0632481","206.172","0.00052668","11.3281","1.9"
"0.0732617","256.486","0.000610514","14.09264","2.2"
"0.0833217","303.046","0.00069396","16.65088","2.5"
"0.0932887","345.859","0.000777018","19.0032","2.8"
"0.103302","383.897","0.000860464","21.0932","3.1"
"0.113269","416.934","0.000943521","22.9085","3.4"
"0.123329","446.095","0.00102774","24.51073","3.7"
"0.13325","471.304","0.00111041","25.8958","4"
"0.14331","494.678","0.00119386","27.1801","4.3"
"0.153323","515.849","0.00127731","28.3434","4.6"
"0.16329","535.592","0.00136036","29.4281","4.9"
"0.173304","554.751","0.00144381","30.4808","5.2"
"0.183271","572.874","0.00152687","31.4766","5.5"
"0.193331","590.431","0.00161109","32.4413","5.8"
"0.203251","606.788","0.00169337","33.34","6.1"
"0.213311","623.333","0.0017772","34.24906","6.4"
"0.223278","638.628","0.00186026","35.0894","6.7"
"0.233292","654.099","0.0019441","35.9395","7"
"0.243352","669.469","0.00202754","36.78402","7.3"
"0.253225","683.126","0.00210982","37.5344","7.6"
"0.263332","698.297","0.00219405","38.368","7.9"
"0.273299","711.67","0.00227749","39.1028","8.2"
"0.283313","725.35","0.00236055","39.8544","8.5"
"0.29328","737.589","0.00244361","40.5269","8.8"
"0.303293","750.324","0.00252705","41.2266","9.1"
"0.313353","762.863","0.00261089","41.9156","9.4"
"0.323227","774.289","0.00269356","42.5433","9.7"
"0.333334","786.385","0.00277739","43.208","10"
"0.3433","797.382","0.00286045","43.8122","10.3"
"0.353267","808.045","0.0029439","44.3981","10.6"
"0.363281","790.629","0.00302734","43.4411","10.9"
"0.373294","808.914","0.0031104","44.4459","11.2"
"0.383355","823.424","0.00319423","45.2431","11.5"
"0.393228","834.781","0.0032769","45.8671","11.8"
"0.403335","846.6","0.00336074","46.5165","12.1"
"0.413255","856.3","0.00344341","47.0494","12.4"
"0.423315","866.522","0.00352724","47.6111","12.7"
"0.433329","876.116","0.00361069","48.1382","13"
"0.443249","885.01","0.00369336","48.6269","13.3"
"0.453309","894.329","0.00377719","49.139","13.6"
"0.463276","902.766","0.00386064","49.6025","13.9"
"0.473336","911.641","0.00394447","50.0902","14.2"
"0.483257","919.528","0.00402675","50.52354","14.5"
"0.49327","928.028","0.00411059","50.99054","14.8"
"0.50333","936.396","0.00419442","51.4503","15.1"
"0.513297","944.198","0.00427709","51.879","15.4"
"0.523311","952.077","0.00436054","52.31192","15.7"
"0.533278","959.087","0.00444359","52.6971","16"
"0.543338","966.936","0.00452743","53.1283","16.3"
"0.553258","974.017","0.0046101","53.5174","16.6"
"0.563318","981.437","0.00469393","53.9251","16.9"
"0.573332","988.901","0.00477738","54.3352","17.2"
"0.583252","995.859","0.00486044","54.7175","17.5"
"0.593359","1003.41","0.00494427","55.1323","17.8"
"0.603279","1009.67","0.00502694","55.4765","18.1"
"0.613339","1017.47","0.00511116","55.9052","18.4"
"0.62326","1023.66","0.00519383","56.245","18.7"
"0.633273","1030.31","0.00527689","56.6102","19"
"0.643287","1037.02","0.00536072","56.9792","19.3"
"0.6533","1043.55","0.00544378","57.3381","19.6"
"0.66336","1049.98","0.00552761","57.6911","19.9"
"0.673234","1055.35","0.0056099","57.9865","20.2"
"0.683294","1062.39","0.00569412","58.37282","20.5"
"0.693308","1068.49","0.00577718","58.70816","20.8"
"0.703275","1074.4","0.00586062","59.033","21.1"
"0.713288","1080.59","0.00594407","59.3733","21.4"
"0.723302","1086.78","0.00602713","59.7131","21.7"
"0.733315","1092.73","0.00611096","60.0401","22"
"0.743282","1098.16","0.00619363","60.3382","22.3"
"0.753342","1104.46","0.00627746","60.6847","22.6"
"0.763263","1109.18","0.00636013","60.94392","22.9"
"0.773276","1114.89","0.00644358","61.2578","23.2"
"0.783336","1120.8","0.00652741","61.5822","23.5"
"0.793257","1125.56","0.00661008","61.8442","23.8"
"0.803363","1131.58","0.00669431","62.1749","24.1"
"0.813284","1136.49","0.00677698","62.4447","24.4"
"0.823297","1142.41","0.00686081","62.7696","24.7"
"0.833264","1147.33","0.00694348","63.04018","25"
"0.843324","1152.75","0.00702731","63.3377","25.3"
"0.853338","1157.97","0.00711076","63.6247","25.6"
"0.863211","1162.5","0.00719304","63.8735","25.9"
"0.873318","1168.1","0.00727726","64.1815","26.2"
"0.883332","1172.62","0.00736071","64.4296","26.5"
"0.893299","1177.8","0.00744415","64.7146","26.8"
"0.903265","1182.05","0.00752682","64.94754","27.1"
"0.913326","1187.77","0.00761066","65.2619","27.4"
"0.923339","1192.24","0.0076941","65.50772","27.7"
"0.933259","1196.88","0.00777677","65.7624","28"
"0.943366","1202.19","0.007861","66.0547","28.3"
"0.953286","1206.39","0.00794367","66.2851","28.6"
"0.9633","1211.01","0.0080275","66.5389","28.9"
"0.973313","1215.76","0.00811056","66.8002","29.2"
"0.98328","1220.34","0.00819361","67.0517","29.5"
"0.993341","1224.82","0.00827745","67.29756","29.8"
"1.00326","1228.48","0.00836012","67.4991","30.1"
"1.01332","1233.52","0.00844395","67.7758","30.4"
"1.02324","1237.54","0.00852701","67.9969","30.7"
"1.03335","1242.43","0.00861084","68.2652","31"
"1.04331","1246.15","0.0086939","68.4696","31.3"
"1.05328","1250.59","0.00877696","68.714","31.6"
"1.0633","1255.24","0.00886079","68.9694","31.9"
"1.07331","1259.15","0.00894385","69.18412","32.2"
"1.08332","1263.57","0.0090273","69.42696","32.5"
"1.09324","1267.45","0.00910997","69.64","32.8"
"1.1033","1271.96","0.00919419","69.8881","33.1"
"1.11332","1243.86","0.00927725","68.34396","33.4"
"1.12328","1254.68","0.00936069","68.9386","33.7"
"1.1333","1264.39","0.00944414","69.472","34"
"1.14326","1271.47","0.00952681","69.861","34.3"
"1.15332","1278.42","0.00961064","70.2429","34.6"
"1.16329","1283.88","0.0096937","70.543","34.9"
"1.1733","1289.26","0.00977715","70.8384","35.2"
"1.18332","1293.49","0.00986059","71.071","35.5"
"1.19328","1298.12","0.00994365","71.3254","35.8"
"1.2033","1302.36","0.0100275","71.5581","36.1"
"1.21322","1305.89","0.0101102","71.752","36.4"
"1.22333","1310.63","0.0101944","72.0128","36.7"
"1.23329","1313.99","0.010277","72.19744","37"
"1.24326","1317.9","0.0103605","72.4119","37.3"
"1.25327","1321.56","0.0104439","72.6133","37.6"
"1.26333","1325.88","0.0105278","72.8505","37.9"
"1.2733","1329.57","0.0106108","73.05324","38.2"
"1.28322","1332.31","0.0106935","73.2038","38.5"
"1.29333","1337.12","0.0107777","73.468","38.8"
"1.30329","1339.95","0.0108604","73.6239","39.1"
"1.31331","1343.87","0.0109438","73.83924","39.4"
"1.32327","1346.99","0.0110273","74.0102","39.7"
"1.33329","1350.57","0.0111103","74.2072","40"
"1.3433","1354.09","0.0111942","74.4003","40.3"
"1.35327","1356.86","0.0112768","74.5526","40.6"
"1.36333","1360.97","0.0113607","74.7784","40.9"
"1.37325","1363.96","0.0114437","74.9429","41.2"
"1.38331","1367.47","0.0115272","75.1356","41.5"
"1.39332","1370.9","0.0116106","75.3241","41.8"
"1.40329","1374.37","0.0116937","75.5151","42.1"
"1.41335","1378.21","0.0117775","75.7259","42.4"
"1.42327","1380.8","0.0118602","75.8681","42.7"
"1.43333","1384.31","0.011944","76.0608","43"
"1.44325","1387.08","0.0120267","76.2131","43.3"
"1.45336","1390.59","0.0121109","76.4058","43.6"
"1.46328","1393.26","0.012194","76.5525","43.9"
"1.47324","1396.64","0.0122766","76.7384","44.2"
"1.48335","1400.41","0.0123609","76.9457","44.5"
"1.49332","1402.98","0.0124439","77.0869","44.8"
"1.50333","1406.57","0.0125274","77.284","45.1"
"1.51325","1409.23","0.01261","77.43028","45.4"
"1.52331","1412.59","0.0126939","77.615","45.7"
"1.53333","1415.57","0.0127773","77.7786","46"
"1.54329","1418.6","0.0128604","77.9449","46.3"
"1.55331","1421.71","0.0129438","78.1157","46.6"
"1.56327","1424.22","0.0130269","78.254","46.9"
"1.57333","1427.77","0.0131107","78.4491","47.2"
"1.5833","1430.07","0.0131938","78.5753","47.5"
"1.59327","1433.26","0.0132772","78.7505","47.8"
"1.60333","1436.64","0.0133607","78.9362","48.1"
"1.61329","1439.43","0.0134437","79.0894","48.4"
"1.62331","1442.48","0.0135272","79.25732","48.7"
"1.63327","1445.41","0.0136102","79.4183","49"
"1.64338","1448.87","0.0136944","79.6082","49.3"
"1.65325","1450.63","0.0137767","79.7051","49.6"
"1.66327","1453.55","0.0138606","79.8655","49.9"
"1.67333","1456.91","0.013944","80.0498","50.2"
"1.68329","1459.27","0.0140271","80.1797","50.5"
"1.68991","1460.93","0.0140822","80.2711","50.7"