Folder: MFRPPO/experimental_data/tensile_specimen_test_data/tensile_test_data/20250311/SSS 2 03-11-25 12 36 06 下午

Note: README.md
# MFRPPO
Enhanced Mechanical Properties of 3D Printed Composites via Continuous Metal Fiber Reinforcement and Process Parameter Optimization

File: 数采：横梁, … - (实时值).csv
"文件路径: C:\Users\Lenovo\Desktop\Wayne\20250311\SSS 2 03-11-25 12 36 06 下午\数采：横梁, … - (实时值).csv   "
"试验: MTS EM 拉伸试验-W 2"
"试验运行: SSS 2"
"日期: 2025/3/11 11:51:51"
""
""
"横梁 ","力 ","应变 ","应力 ","时间 "
"mm","N","mm/mm","N/mm²","sec"
"0.00265475","1812.61","2.17348e-05","92.95424","0.1"
"0.0898887","1937.09","0.000749073","99.33804","2.7"
"0.176564","1950.25","0.00147098","100.0128","5.3"
"0.263332","1961.82","0.00219443","100.606","7.9"
"0.349914","1972.47","0.00291556","101.153","10.5"
"0.436543","1983.42","0.00363785","101.714","13.1"
"0.523311","1993.6","0.00436054","102.236","15.7"
"0.609939","2003.58","0.00508244","102.748","18.3"
"0.696615","2013.31","0.00580473","103.246","20.9"
"0.783243","2022.91","0.00652664","103.739","23.5"
"0.869918","2032.72","0.00724893","104.242","26.1"
"0.95664","2041.37","0.00797161","104.686","28.7"
"1.04327","2049.91","0.00869351","105.124","31.3"
"1.1299","2058.18","0.00941581","105.548","33.9"
"1.21667","2066.81","0.0101389","105.99","36.5"
"1.3032","2074.5","0.01086","106.385","39.1"
"1.38992","2082.29","0.0115823","106.784","41.7"
"1.4766","2090.21","0.012305","107.19","44.3"
"1.56327","2097.26","0.0130269","107.552","46.9"
"1.64999","2104.78","0.0137496","107.938","49.5"
"1.73658","2111.13","0.0144711","108.263","52.1"
"1.82325","2117.89","0.0151934","108.61","54.7"
"1.90997","2124.32","0.0159161","108.9396","57.3"
"1.99655","2130.49","0.0166376","109.256","59.9"
"2.08328","2135.99","0.0173602","109.538","62.5"
"2.17","2142.49","0.0180829","109.871","65.1"
"2.25653","2147.97","0.0188044","110.152","67.7"
"2.34326","2153.79","0.0195271","110.451","70.3"
"2.42993","2158.72","0.0202494","110.704","72.9"
"2.51661","2164.1","0.0209713","110.979","75.5"
"2.60328","2169.38","0.0216936","111.25","78.1"
"2.68986","2174.02","0.0224155","111.488","80.7"
"2.77663","2178.95","0.0231382","111.741","83.3"
"2.86331","2183.41","0.0238605","111.97","85.9"
"2.94989","2187.76","0.024582","112.193","88.5"
"3.03661","2192.24","0.0253051","112.423","91.1"
"3.12333","2196.44","0.0260274","112.638","93.7"
"3.20987","2200","0.0267489","112.82","96.3"
"3.29659","2204.14","0.0274712","113.033","98.9"
"3.38326","2207.71","0.0281935","113.216","101.5"
"3.46994","2211.62","0.0289158","113.416","104.1"
"3.55661","2214.83","0.0296384","113.581","106.7"
"3.6432","2218.46","0.0303596","113.767","109.3"
"3.72996","2222.13","0.0310826","113.955","111.9"
"3.81664","2225.15","0.0318049","114.11","114.5"
"3.90322","2228.09","0.0325265","114.261","117.1"
"3.98994","2231.16","0.0332495","114.418","119.7"
"4.07662","2234.02","0.0339714","114.565","122.3"
"4.16325","2236.8","0.0346933","114.708","124.9"
"4.24997","2239.82","0.035416","114.862","127.5"
"4.3366","2242.14","0.0361379","114.982","130.1"
"4.42327","2245","0.0368606","115.128","132.7"
"4.50995","2247.46","0.0375825","115.254","135.3"
"4.59653","2249.78","0.0383044","115.374","137.9"
"4.6833","2252.18","0.0390271","115.496","140.5"
"4.76993","2254.51","0.0397494","115.616","143.1"
"4.85655","2256.55","0.0404713","115.72","145.7"
"4.94332","2258.99","0.041194","115.845","148.3"
"5.02995","2260.75","0.0419159","115.936","150.9"
"5.11658","2262.68","0.0426378","116.035","153.5"
"5.20325","2264.86","0.0433605","116.146","156.1"
"5.28993","2266.81","0.0440824","116.247","158.7"
"5.37665","2268.83","0.044805","116.35","161.3"
"5.46323","2257","0.0455269","115.744","163.9"
"5.54986","2264.63","0.0462488","116.135","166.5"
"5.63668","2267.05","0.0469719","116.259","169.1"
"5.72326","2269.36","0.0476938","116.377","171.7"
"5.80993","2271.42","0.0484157","116.483","174.3"
"5.89661","2273.26","0.049138","116.577","176.9"
"5.98324","2275.02","0.0498599","116.667","179.5"
"6.06996","2276.97","0.0505826","116.768","182.1"
"6.15659","2278.2","0.0513045","116.831","184.7"
"6.24322","2279.98","0.0520268","116.922","187.3"
"6.32998","2281.74","0.0527495","117.012","189.9"
"6.41657","2282.79","0.0534714","117.066","192.5"
"6.50324","2284.36","0.0541933","117.147","195.1"
"6.58996","2286","0.054916","117.231","197.7"
"6.67659","2287.23","0.0556379","117.294","200.3"
"6.76327","2288.38","0.0563606","117.353","202.9"
"6.84994","2289.43","0.0570825","117.407","205.5"
"6.93657","2290.63","0.0578044","117.468","208.1"
"7.02329","2291.96","0.058527","117.536","210.7"
"7.10992","2292.96","0.0592489","117.588","213.3"
"7.1966","2294.1","0.0599712","117.646","215.9"
"7.28332","2295.43","0.0606939","117.715","218.5"
"7.36985","2296.15","0.0614154","117.751","221.1"
"7.45657","2297.19","0.0621381","117.805","223.7"
"7.5433","2298.16","0.0628604","117.854","226.3"
"7.62992","2298.81","0.0635823","117.888","228.9"
"7.7166","2299.73","0.064305","117.935","231.5"
"7.80327","2300.36","0.0650269","117.967","234.1"
"7.8899","2301.07","0.0657488","118.004","236.7"
"7.97663","2302.08","0.0664715","118.055","239.3"
"8.06321","2302.59","0.0671934","118.081","241.9"
"8.14993","2303.62","0.0679157","118.134","244.5"
"8.23665","2304.01","0.0686384","118.154","247.1"
"8.32323","2304.27","0.0693599","118.168","249.7"
"8.40995","2305.23","0.0700826","118.217","252.3"
"8.49663","2305.84","0.0708048","118.248","254.9"
"8.58326","2306.17","0.0715268","118.265","257.5"
"8.66998","2306.74","0.0722494","118.294","260.1"
"8.75656","2307.49","0.072971","118.333","262.7"
"8.84324","2308.09","0.0736932","118.364","265.3"
"8.92996","2308.6","0.0744163","118.39","267.9"
"9.01659","2308.83","0.0751378","118.402","270.5"
"9.10326","2309.25","0.0758605","118.423","273.1"
"9.18994","2309.63","0.0765828","118.442","275.7"
"9.27657","2310.25","0.0773043","118.474","278.3"
"9.36329","2310.63","0.078027","118.494","280.9"
"9.44992","2310.88","0.0787493","118.507","283.5"
"9.53659","2311.75","0.0794716","118.551","286.1"
"9.62331","2312.24","0.0801939","118.576","288.7"
"9.70989","2312.18","0.0809154","118.573","291.3"
"9.79662","2312.44","0.0816381","118.587","293.9"
"9.88329","2312.6","0.0823604","118.595","296.5"
"9.96987","2312.81","0.0830823","118.605","299.1"
"10.0566","2313.52","0.083805","118.642","301.7"
"10.1433","2313.68","0.0845269","118.65","304.3"
"10.2299","2313.95","0.0852488","118.664","306.9"
"10.3166","2314.49","0.0859714","118.692","309.5"
"10.4032","2314.51","0.0866933","118.693","312.1"
"10.49","2314.81","0.087416","118.708","314.7"
"10.5766","2315.38","0.0881383","118.737","317.3"
"10.6632","2315.66","0.0888598","118.752","319.9"
"10.7499","2316.04","0.0895825","118.771","322.5"
"10.8366","2316.21","0.0903048","118.78","325.1"
"10.9233","2316.2","0.0910267","118.78","327.7"
"11.01","2316.75","0.0917494","118.808","330.3"
"11.0966","2317.08","0.0924713","118.825","332.9"
"11.1832","2317.55","0.0931936","118.849","335.5"
"11.27","2317.67","0.0939159","118.855","338.1"
"11.3565","2317.86","0.0946378","118.865","340.7"
"11.4433","2318.02","0.0953609","118.873","343.3"
"11.5299","2318.26","0.0960824","118.885","345.9"
"11.6166","2318.38","0.0968043","118.891","348.5"
"11.7033","2318.51","0.097527","118.898","351.1"
"11.7899","2318.54","0.0982489","118.9","353.7"
"11.8766","2318.97","0.0989715","118.921","356.3"
"11.9633","2319.3","0.0996938","118.938","358.9"
"12.0499","2319.39","0.100415","118.943","361.5"
"12.1366","2319.52","0.101138","118.95","364.1"
"12.2233","2319.87","0.101861","118.967","366.7"
"12.3099","2319.99","0.102582","118.974","369.3"
"12.3966","2320.07","0.103305","118.978","371.9"
"12.4832","2320.1","0.104027","118.979","374.5"
"12.5699","2320.16","0.104749","118.983","377.1"
"12.6566","2318.43","0.105471","118.894","379.7"
"12.7432","2316.99","0.106193","118.82","382.3"
"12.83","2310.8","0.106916","118.502","384.9"
"12.9166","2312.03","0.107638","118.566","387.5"
"13.0032","2312.15","0.10836","118.572","390.1"
"13.0899","2297.56","0.109082","117.823","392.7"
"13.1766","2290.43","0.109805","117.458","395.3"
"13.2632","2290.76","0.110527","117.475","397.9"
"13.35","2287.49","0.11125","117.307","400.5"
"13.4366","2280.03","0.111971","116.924","403.1"
"13.5233","2278.02","0.112694","116.8214","405.7"
"13.6099","2275.625","0.113416","116.699","408.3"
"13.6966","2271.59","0.114138","116.492","410.9"
"13.7833","2270.32","0.11486","116.427","413.5"
"13.8699","2267.94","0.115582","116.305","416.1"
"13.9566","2266.03","0.116304","116.207","418.7"
"14.0433","2264.95","0.117027","116.151","421.3"
"14.13","2263.65","0.117749","116.0844","423.9"
"14.2166","2262.53","0.118471","116.027","426.5"
"14.3033","2261.19","0.119194","115.9584","429.1"
"14.3899","2260.13","0.119915","115.904","431.7"
"14.4766","2259.63","0.120638","115.879","434.3"
"14.5633","2259.18","0.12136","115.855","436.9"
"14.6499","2258.61","0.122082","115.826","439.5"
"14.7366","2258.24","0.122805","115.807","442.1"
"14.8233","2257.66","0.123527","115.777","444.7"
"14.9099","2257.05","0.124249","115.746","447.3"
"14.9966","2256.98","0.124972","115.742","449.9"
"15.0832","2256.5","0.125693","115.718","452.5"
"15.1699","2256.07","0.126416","115.696","455.1"
"15.2566","2255.97","0.127138","115.691","457.7"
"15.3432","2255.54","0.12786","115.669","460.3"
"15.43","2255.43","0.128583","115.663","462.9"
"15.5166","2255.25","0.129305","115.654","465.5"
"15.6033","2254.87","0.130027","115.635","468.1"
"15.69","2254.52","0.13075","115.616","470.7"
"15.7765","2254.2","0.131471","115.6","473.3"
"15.8633","2253.88","0.132194","115.584","475.9"
"15.95","2253.89","0.132916","115.584","478.5"
"16.0366","2253.73","0.133638","115.576","481.1"
"16.1232","2252.59","0.13436","115.518","483.7"
"16.21","2252.57","0.135083","115.516","486.3"
"16.2966","2251.78","0.135805","115.476","488.9"
"16.3833","2250.08","0.136527","115.389","491.5"
"16.4699","2249.58","0.137249","115.363","494.1"
"16.5566","2241.49","0.137971","114.948","496.7"
"16.6433","2241.67","0.138694","114.957","499.3"
"16.7299","2234.84","0.139416","114.607","501.9"
"16.8166","2210.58","0.140138","113.363","504.5"
"16.9033","1009.33","0.14086","51.7605","507.1"
"16.9899","1047.05","0.141583","53.695","509.7"
"17.0766","1059.78","0.142305","54.34752","512.3"
"17.1633","1064.7","0.143027","54.5999","514.9"
"17.2133","1066.51","0.143444","54.6927","516.4"