Folder: MFRPPO/experimental_data/tensile_specimen_test_data/tensile_test_data/2025_01_14_tensile_test/Test Run 3 01-14-25 16 46 25 下午

Note: README.md
# MFRPPO
Enhanced Mechanical Properties of 3D Printed Composites via Continuous Metal Fiber Reinforcement and Process Parameter Optimization

File: 数采：横梁, … - (实时值).csv
"文件路径: C:\Users\Lenovo\Desktop\Test Run 3 01-14-25 16 46 25 下午\数采：横梁, … - (实时值).csv   "
"试验: MTS EM 拉伸试验（引伸计） 3"
"试验运行: Test Run 3"
"日期: 2025/1/14 16:26:39"
""
""
"横梁 ","力 ","时间 ","引伸计 "
"mm","N","sec","mm"
"0.00125751","20.5215","0.05","2.10754e-05"
"0.0532346","295.774","1.6","0.0177638"
"0.104932","609.471","3.15","0.0326571"
"0.156583","910.997","4.7","0.0460539"
"0.208235","1200.84","6.25","0.0587244"
"0.260025","1478.38","7.8","0.0708728"
"0.31163","1741.82","9.35","0.0826405"
"0.363281","1989.46","10.9","0.0939632"
"0.414932","2220.34","12.45","0.104762"
"0.466583","2428.1","14","0.115273"
"0.518281","2613.24","15.55","0.125666"
"0.569932","2775.61","17.1","0.136132"
"0.621583","2915.24","18.65","0.146214"
"0.673281","3037","20.2","0.155977"
"0.724978","3142.32","21.75","0.165437"
"0.776629","3236.55","23.3","0.174697"
"0.828234","3322","24.85","0.183861"
"0.879885","3400.18","26.4","0.193128"
"0.931583","3472.8","27.95","0.202452"
"0.98328","3540.97","29.5","0.211981"
"1.03493","3603.41","31.05","0.221576"
"1.08663","3662.85","32.6","0.231343"
"1.13833","3718.3","34.15","0.241455"
"1.18998","3770.53","35.7","0.251876"
"1.24158","3819.18","37.25","0.262551"
"1.29328","3865.15","38.8","0.273507"
"1.34493","3907.99","40.35","0.284737"
"1.39658","3947.73","41.9","0.296165"
"1.44828","3985.38","43.45","0.307868"
"1.49998","4020.2","45","0.319757"
"1.55163","4053.46","46.55","0.331956"
"1.60328","4083.76","48.1","0.344246"
"1.65488","4113.06","49.65","0.356846"
"1.70658","4139.48","51.2","0.369414"
"1.75823","4165.19","52.75","0.382148"
"1.80988","4189.34","54.3","0.39509"
"1.86163","4213.03","55.85","0.408172"
"1.91328","4235.16","57.4","0.421429"
"1.96493","4255.82","58.95","0.434678"
"2.01667","4276.47","60.5","0.448188"
"2.06828","4295.05","62.05","0.461764"
"2.11988","4313.62","63.6","0.475496"
"2.17163","4331.17","65.15","0.48928"
"2.22323","4348.42","66.7","0.503184"
"2.27493","4363.99","68.25","0.517155"
"2.32667","4380.78","69.8","0.531163"
"2.37828","4396.15","71.35","0.545247"
"2.42998","4410.78","72.9","0.559462"
"2.48158","4425.1","74.45","0.573554"
"2.53319","4439.23","76","0.587828"
"2.58493","4452.96","77.55","0.602192"
"2.63658","4466.24","79.1","0.616558"
"2.68823","4479.57","80.65","0.630962"
"2.74002","4492.85","82.2","0.645368"
"2.79163","4505.18","83.75","0.659892"
"2.84328","4517.1","85.3","0.674362"
"2.89498","4528.68","86.85","0.688853"
"2.94658","4539.69","88.4","0.703314"
"2.99823","4551.28","89.95","0.717843"
"3.04993","4562.39","91.5","0.732452"
"3.10158","4572.91","93.05","0.746981"
"3.15328","4583.98","94.6","0.761576"
"3.20498","4594.02","96.15","0.775946"
"3.25663","4604.41","97.7","0.790391"
"3.30823","4613.74","99.25","0.804822"
"3.35993","4624.15","100.8","0.819262"
"3.41153","4633.74","102.35","0.833658"
"3.46328","4643.81","103.9","0.848042"
"3.51493","4652.93","105.45","0.862316"
"3.56663","4662.88","107","0.876662"
"3.61832","4671.32","108.55","0.890917"
"3.66998","4680.55","110.1","0.905189"
"3.72158","4689.48","111.65","0.919599"
"3.77328","4697.81","113.2","0.933817"
"3.82493","4706.89","114.75","0.94823"
"3.87658","4715","116.3","0.96255"
"3.92828","4724.19","117.85","0.976893"
"3.97998","4732.84","119.4","0.991255"
"4.03163","4740.92","120.95","1.00539"
"4.08328","4748.68","122.5","1.01961"
"4.13493","4757.15","124.05","1.03374"
"4.18653","4765.47","125.6","1.04804"
"4.23823","4773.23","127.15","1.06223"
"4.28988","4781.9","128.7","1.07661"
"4.34163","4789.63","130.25","1.0909"
"4.39332","4797.94","131.8","1.10531"
"4.44498","4805.63","133.35","1.11975"
"4.49667","4813.25","134.9","1.1341"
"4.54828","4820.68","136.45","1.14853"
"4.59993","4828.28","138","1.16287"
"4.65158","4835.92","139.55","1.17734"
"4.70328","4843.03","141.1","1.19177"
"4.75493","4850.61","142.65","1.20616"
"4.80667","4858.07","144.2","1.22055"
"4.85828","4865.23","145.75","1.23495"
"4.90997","4872.5","147.3","1.24944"
"4.96158","4879.28","148.85","1.26392"
"5.01323","4885.78","150.4","1.27834"
"5.06493","4892.75","151.95","1.29274"
"5.11653","4899.18","153.5","1.30716"
"5.16828","4906.07","155.05","1.32157"
"5.22002","4913.63","156.6","1.33604"
"5.27163","4919.97","158.15","1.35049"
"5.32328","4926.47","159.7","1.36495"
"5.37497","4933.59","161.25","1.37935"
"5.42658","4939.43","162.8","1.39376"
"5.47828","4946.06","164.35","1.40826"
"5.52993","4952.44","165.9","1.42264"
"5.58158","4958.24","167.45","1.43701"
"5.63332","4965.08","169","1.45138"
"5.68497","4970.78","170.55","1.46571"
"5.73663","4976.95","172.1","1.4801"
"5.78828","4982.86","173.65","1.49443"
"5.83988","4988.52","175.2","1.50888"
"5.89158","4994.46","176.75","1.52329"
"5.94328","5000.49","178.3","1.5377"
"5.99493","5006.06","179.85","1.55213"
"6.04662","5012.21","181.4","1.56643"
"6.09832","5018.44","182.95","1.58086"
"6.14997","5023.15","184.5","1.59501"
"6.20162","5028.8","186.05","1.6093"
"6.25328","5033.26","187.6","1.62338"
"6.30493","5038.98","189.15","1.63742"
"6.35658","5043.97","190.7","1.65152"
"6.40828","5049.2","192.25","1.6656"
"6.45997","5054.53","193.8","1.6797"
"6.51162","5059.63","195.35","1.69383"
"6.56328","5064.74","196.9","1.70795"
"6.61493","5068.96","198.45","1.72201"
"6.66658","5074.33","200","1.73613"
"6.71823","5078.96","201.55","1.75017"
"6.76988","5083.78","203.1","1.76429"
"6.82162","5089.07","204.65","1.77831"
"6.87332","5094.16","206.2","1.79238"
"6.92493","5098.54","207.75","1.80635"
"6.97667","5103.67","209.3","1.82037"
"7.02828","5107.71","210.85","1.83424"
"7.07988","5111.53","212.4","1.84807"
"7.13162","5116.4","213.95","1.862"
"7.18323","5120.53","215.5","1.87578"
"7.23493","5124.32","217.05","1.88959"
"7.28667","5128.79","218.6","1.90327"
"7.33828","5132.37","220.15","1.91689"
"7.38993","5135.25","221.7","1.93033"
"7.44162","5138.85","223.25","1.94352"
"7.49318","5141.44","224.8","1.95653"
"7.54493","5145.46","226.35","1.96954"
"7.59658","5149.29","227.9","1.98248"
"7.64823","5153.47","229.45","1.99534"
"7.70002","5155.89","231","2.00801"
"7.75162","5160.06","232.55","2.02061"
"7.80327","5162.98","234.1","2.03362"
"7.85497","5165.18","235.65","4.59318"
"7.90658","5169.94","237.2","4.63329"
"7.95823","5173.27","238.75","0.852288"
"8.00993","5177.28","240.3","5.03404"
"8.06158","5179.69","241.85","5.69994"
"8.11332","5184.25","243.4","4.64318"
"8.16497","5187.62","244.95","3.5215"
"8.21662","5191.47","246.5","3.48637"
"8.26823","5194.88","248.05","4.53562"
"8.31988","5198.16","249.6","4.98503"
"8.37153","5202.03","251.15","3.93006"
"8.42323","5205.07","252.7","3.52179"
"8.47493","5208.57","254.25","3.4575"
"8.52662","5211.5","255.8","7.44404"
"8.57832","5215.63","257.35","8.1137"
"8.62997","5218.53","258.9","0.12988"
"8.68158","5220.8","260.45","0.575292"
"8.73327","5223.42","262","-0.0202171"
"8.78492","5226.52","263.55","-0.021866"
"8.83653","5229.89","265.1","0.00748639"
"8.88827","5232.81","266.65","0.0187682"
"8.93997","5236.55","268.2","0.0185117"
"8.99162","5238.43","269.75","0.0177198"
"9.04332","5241.29","271.3","0.0192602"
"9.09492","5243.71","272.85","0.0176338"
"9.14658","5246.52","274.4","0.0180863"
"9.19823","5247.68","275.95","0.0188373"
"9.24992","5250.82","277.5","0.0171836"
"9.30158","5253.95","279.05","0.0179819"
"9.35332","5256.57","280.6","0.0186969"
"9.40497","5258.99","282.15","0.0171079"
"9.45667","5261.05","283.7","0.0173836"
"9.50827","5262.86","285.25","0.0184952"
"9.55988","5265.81","286.8","0.0169511"
"9.61157","5268.36","288.35","0.0169409"
"9.66327","5270.35","289.9","0.0182264"
"9.71492","5272.13","291.45","0.0169667"
"9.76662","5273.91","293","0.0165582"
"9.81832","5276.04","294.55","0.0180354"
"9.86997","5277.99","296.1","0.0169356"
"9.92157","5278.69","297.65","0.0163519"
"9.97323","5281.17","299.2","0.0179912"
"10.0249","5282.14","300.75","0.0170761"
"10.0766","5284.43","302.3","0.016316"
"10.1283","5286.91","303.85","0.0178603"
"10.18","5289.92","305.4","0.0169174"
"10.2316","5291.81","306.95","0.0160763"
"10.2833","5294.15","308.5","0.0176977"
"10.335","5295.08","310.05","0.0165187"
"10.3866","5297.1","311.6","0.0162458"
"10.4382","5299.06","313.15","0.0177746"
"10.4899","5301.55","314.7","0.0159858"
"10.5416","5303.53","316.25","0.0167862"
"10.5933","5305.79","317.8","0.0171428"
"10.645","5308.42","319.35","0.015782"
"10.6966","5307.23","320.9","0.0174404"
"10.7483","5309.24","322.45","0.0160994"
"10.7999","5308.66","324","0.0165411"
"10.8516","5309.46","325.55","0.0169662"
"10.9033","5309.71","327.1","0.0156565"
"10.9549","5309.53","328.65","0.0174246"
"11.0066","5309.48","330.2","0.015706"
"11.0584","5311.98","331.75","0.016954"
"11.11","5313.94","333.3","0.0164098"
"11.1616","5315.19","334.85","0.0159383"
"11.2133","5317.17","336.4","0.0171053"
"11.2649","5318.31","337.95","0.0154991"
"11.3166","5320.08","339.5","0.0172634"
"11.3683","5321.65","341.05","0.0157474"
"11.42","5323.69","342.6","0.016528"
"11.4716","5325.1","344.15","0.016566"
"11.5233","5326.86","345.7","0.0155444"
"11.5749","5328.24","347.25","0.0171997"
"11.6266","5329.78","348.8","0.0154522"
"11.6782","5331.31","350.35","0.0164833"
"11.7299","5332.5","351.9","0.0166453"
"11.7816","5332.96","353.45","0.0153537"
"11.8333","5334.56","355","0.0170985"
"11.885","5335.21","356.55","0.0159526"
"11.9367","5334.13","358.1","0.015542"
"11.9883","5335.43","359.65","0.0171216"
"12.0399","5336.44","361.2","0.0158487"
"12.0916","5337.88","362.75","0.0154832"
"12.1432","5339.09","364.3","0.0171035"
"12.1949","5341.28","365.85","0.0160089"
"12.2467","5342.25","367.4","0.0154072"
"12.2983","5343.19","368.95","0.016922"
"12.35","5344.18","370.5","0.0162037"
"12.4016","5343.18","372.05","0.0152759"
"12.4532","5340.43","373.6","0.0168334"
"12.5049","5340.78","375.15","0.0161698"
"12.5566","5341.28","376.7","0.0151021"
"12.6082","5337.87","378.25","0.0166557"
"12.66","5334.83","379.8","0.0162292"
"12.7116","5328.17","381.35","0.0151333"
"12.7633","5323.61","382.9","0.0166275"
"12.815","5315.35","384.45","0.0161475"
"12.8666","5299.8","386","0.0150866"
"12.9182","5286.87","387.55","0.0166986"
"12.9699","5272.96","389.1","0.0157526"
"13.0216","5252.69","390.65","0.0154622"
"13.0733","5205.44","392.2","0.0168223"
"13.125","5117.98","393.75","0.0152068"
"13.1617","-472.137","394.829","0.015918"